timestamp_us,quat_w,quat_x,quat_y,quat_z,accel_x,accel_y,accel_z,gyro_x,gyro_y,gyro_z,accel_real_x,accel_real_y,accel_real_z,accel_world_x,accel_world_y,accel_world_z,gravity_x,gravity_y,gravity_z,yaw,pitch,roll
294300,0.99993896484375,0.00360107421875,-0.0001220703125,0.00018310546875,21,19,1441,-3,-2,1,18,-39,-6749,19,9,-6748,0.00024544447660446167,0.0072016641497612,0.9998649954795837,-0.0003671478189062327,0.00024547125212848186,0.007202512118965387
304244,0.99993896484375,0.00335693359375,-0.00030517578125,0.0003662109375,24,22,1615,-3,-2,1,18,-32,-6575,22,12,-6574,0.0006127730011940002,0.0067132338881492615,0.9998666644096375,-0.0007345887715928257,0.0006128408713266253,0.006714027840644121
314465,0.99993896484375,0.0030517578125,-0.00054931640625,0.00048828125,24,23,1743,-3,-2,1,14,-26,-6447,21,13,-6446,0.0011015459895133972,0.006102606654167175,0.9998685717582703,-0.0009800763800740242,0.001101669855415821,0.006103333085775375
324461,0.99993896484375,0.0028076171875,-0.000732421875,0.00067138671875,25,24,1839,-3,-2,1,12,-21,-6351,21,14,-6350,0.0014685243368148804,0.0056139081716537476,0.9998700022697449,-0.0013471110723912716,0.0014686911599710584,0.005614578723907471
334445,0.99993896484375,0.0025634765625,-0.0009765625,0.0008544921875,26,26,1909,-3,-2,1,9,-15,-6281,21,17,-6280,0.0019573867321014404,0.005124971270561218,0.9998711347579956,-0.0017142812721431255,0.0019576107151806355,0.005125586874783039
344420,0.99993896484375,0.0023193359375,-0.00115966796875,0.00103759765625,29,27,1962,-3,-2,1,9,-10,-6228,23,18,-6227,0.0023240074515342712,0.0046359822154045105,0.9998722672462463,-0.0020809306297451258,0.002324275206774473,0.004636541474610567
354415,0.99993896484375,0.0020751953125,-0.0013427734375,0.00115966796875,30,29,2000,-3,-2,1,7,-4,-6190,23,21,-6189,0.0026901960372924805,0.00414702296257019,0.9998732209205627,-0.0023253110703080893,0.0026905075646936893,0.004147524945437908
364409,0.99993896484375,0.0018310546875,-0.0015869140625,0.0013427734375,29,29,2024,-3,-2,1,2,0,-6166,21,22,-6165,0.0031785517930984497,0.003657624125480652,0.9998738765716553,-0.002691827015951276,0.003178920829668641,0.003658069297671318
374403,0.99993896484375,0.0015869140625,-0.00177001953125,0.00152587890625,27,31,2046,-3,-2,1,-2,5,-6144,19,24,-6143,0.0035446658730506897,0.00316823273897171,0.9998745918273926,-0.0030579110607504845,0.0035450777504593134,0.0031686194706708193
384403,0.99993896484375,0.0013427734375,-0.001953125,0.001708984375,28,31,2065,-3,-2,1,-4,9,-6125,19,25,-6124,0.0039106011390686035,0.002678707242012024,0.9998752474784851,-0.0034238158259540796,0.0039110551588237286,0.002679034834727645
394404,0.99993896484375,0.00103759765625,-0.002197265625,0.00189208984375,29,30,2075,-3,-2,1,-7,13,-6115,19,25,-6114,0.00439818948507309,0.0020667538046836853,0.9998756051063538,-0.0037894074339419603,0.004398698918521404,0.0020670078229159117
403985,0.99993896484375,0.00079345703125,-0.00238037109375,0.0020751953125,29,29,2083,-3,-2,1,-10,16,-6107,18,25,-6106,0.00476374477148056,0.001576937735080719,0.9998759031295776,-0.004154900088906288,0.0047642942517995834,0.00157713214866817
414007,0.99993896484375,0.00054931640625,-0.0025634765625,0.002197265625,30,30,2088,-3,-2,1,-12,21,-6102,19,27,-6101,0.0051290541887283325,0.0010873004794120789,0.9998759031295776,-0.00439812196418643,0.005129642318934202,0.001087434939108789
424027,0.99993896484375,0.00030517578125,-0.0028076171875,0.00238037109375,30,29,2091,-3,-2,1,-16,24,-6099,18,27,-6098,0.005616344511508942,0.000596947968006134,0.9998756051063538,-0.0047632912173867226,0.0056169829331338406,0.0005970221827737987
434046,0.99993896484375,6.103515625e-05,-0.00299072265625,0.0025634765625,28,28,2093,-3,-2,1,-20,27,-6097,16,27,-6096,0.0059813931584358215,0.00010672956705093384,0.999875545501709,-0.00512821227312088,0.0059820665046572685,0.00010674285294953734
444064,0.99993896484375,-0.00018310546875,-0.003173828125,0.00274658203125,29,28,2097,-3,-2,1,-22,31,-6093,16,28,-6092,0.006346262991428375,-0.000383622944355011,0.9998753666877747,-0.005492951720952988,0.0063469684682786465,-0.00038367073284462094
454285,0.99993896484375,-0.00048828125,-0.00335693359375,0.0029296875,30,28,2100,-3,-2,1,-24,36,-6090,16,30,-6089,0.0067105963826179504,-0.0009961724281311035,0.999875009059906,-0.005857099313288927,0.006711331661790609,-0.0009962966432794929
464281,0.99993896484375,-0.000732421875,-0.00360107421875,0.00311279296875,32,29,2103,-3,-2,1,-26,41,-6087,17,32,-6086,0.007197149097919464,-0.0014871731400489807,0.9998741149902344,-0.006221362855285406,0.00719792302697897,-0.001487359288148582
474275,0.99993896484375,-0.0009765625,-0.0037841796875,0.0032958984375,30,29,2104,-3,-2,1,-31,45,-6086,14,33,-6085,0.0075614601373672485,-0.00197795033454895,0.9998735189437866,-0.006585503928363323,0.007562257349491119,-0.001978198066353798
484270,0.99993896484375,-0.001220703125,-0.00396728515625,0.00341796875,31,30,2105,-3,-2,1,-33,50,-6085,14,35,-6084,0.007925741374492645,-0.0024683773517608643,0.9998723864555359,-0.006827374920248985,0.007926562801003456,-0.0024686872493475676
494262,0.99993896484375,-0.00146484375,-0.00421142578125,0.00360107421875,30,30,2104,-3,-2,1,-38,54,-6086,12,36,-6085,0.008411787450313568,-0.0029598399996757507,0.999871015548706,-0.00719097163528204,0.008412637747824192,-0.002960213227197528
504268,0.99993896484375,-0.001708984375,-0.00439453125,0.0037841796875,30,30,2104,-3,-2,1,-41,58,-6086,12,37,-6085,0.008775591850280762,-0.003451019525527954,0.9998700022697449,-0.007554533425718546,0.00877645518630743,-0.0034514544531702995
514262,0.99993896484375,-0.001953125,-0.004638671875,0.00396728515625,31,31,2103,-3,-2,1,-44,63,-6087,12,39,-6086,0.009261280298233032,-0.003942817449569702,0.9998683333396912,-0.007917673327028751,0.009262163192033768,-0.003943316172808409
523855,0.99993896484375,-0.002197265625,-0.00482177734375,0.004150390625,31,31,2105,-3,-2,1,-47,67,-6085,11,40,-6084,0.009624727070331573,-0.0044342875480651855,0.9998670816421509,-0.008280837908387184,0.009625614620745182,-0.004434848204255104
533881,0.99993896484375,-0.00250244140625,-0.00506591796875,0.00433349609375,31,29,2105,-3,-2,1,-51,70,-6085,10,39,-6085,0.01010952889919281,-0.005048483610153198,0.9998647570610046,-0.008642896078526974,0.010110422968864441,-0.005049123428761959
543908,0.99993896484375,-0.00274658203125,-0.0052490234375,0.0045166015625,31,29,2103,-3,-2,1,-54,74,-6087,9,40,-6087,0.010472595691680908,-0.005540244281291962,0.9998632073402405,-0.009005636908113956,0.010473485104739666,-0.005540945567190647
553930,0.99993896484375,-0.00299072265625,-0.00543212890625,0.004638671875,31,29,2104,-3,-2,1,-57,78,-6086,8,41,-6086,0.01083584874868393,-0.0060314759612083435,0.9998610019683838,-0.00924611371010542,0.010836733505129814,-0.006032241508364677
564147,0.99993896484375,-0.00323486328125,-0.005615234375,0.00482177734375,29,29,2104,-3,-2,1,-62,82,-6086,5,42,-6086,0.011198587715625763,-0.006523482501506805,0.9998591542243958,-0.00960848480463028,0.011199458502233028,-0.006524308584630489
574146,0.99993896484375,-0.00347900390625,-0.005859375,0.0050048828125,29,27,2106,-3,-2,1,-66,84,-6084,4,41,-6084,0.011683210730552673,-0.00701623409986496,0.9998565316200256,-0.009970247745513916,0.01168406754732132,-0.007017125841230154
584141,0.99993896484375,-0.00372314453125,-0.00604248046875,0.00518798828125,29,27,2106,-3,-2,1,-69,88,-6084,3,42,-6084,0.012045592069625854,-0.007508531212806702,0.9998544454574585,-0.010332216508686543,0.012046422809362411,-0.007509483024477959
594135,0.99993896484375,-0.00396728515625,-0.0062255859375,0.00537109375,28,27,2106,-3,-2,1,-73,92,-6084,2,43,-6084,0.01240779459476471,-0.008000962436199188,0.9998522996902466,-0.010694000869989395,0.01240859366953373,-0.00800197385251522
604127,0.99993896484375,-0.0042724609375,-0.00640869140625,0.00555419921875,29,27,2104,-3,-2,1,-75,97,-6086,2,44,-6086,0.012769140303134918,-0.008615590631961823,0.9998494982719421,-0.011054803617298603,0.012769894674420357,-0.0086166737601161
614113,0.99993896484375,-0.00445556640625,-0.006591796875,0.0057373046875,30,28,2102,-3,-2,1,-77,101,-6088,2,46,-6088,0.013131663203239441,-0.008986227214336395,0.9998475313186646,-0.011417006142437458,0.013132380321621895,-0.008987355045974255
624111,0.99993896484375,-0.00469970703125,-0.00677490234375,0.005859375,29,30,2101,-3,-2,1,-81,107,-6089,0,49,-6090,0.01349390298128128,-0.009478233754634857,0.9998442530632019,-0.011656156741082668,0.013494579121470451,-0.009479425847530365
633700,0.99993896484375,-0.00494384765625,-0.00701904296875,0.00604248046875,28,29,2103,-3,-2,1,-86,110,-6087,-1,49,-6088,0.013977482914924622,-0.009971916675567627,0.9998407363891602,-0.012016589753329754,0.013978103175759315,-0.009973174892365932
643722,0.99993896484375,-0.00518798828125,-0.0072021484375,0.0062255859375,29,30,2105,-3,-2,1,-88,115,-6085,-1,51,-6086,0.014338821172714233,-0.010465018451213837,0.9998378753662109,-0.012377405539155006,0.014339379034936428,-0.010466333478689194
653751,0.9998779296875,-0.00543212890625,-0.00738525390625,0.00640869140625,29,30,2107,-3,-2,1,-91,119,-6082,-2,52,-6082,0.014699079096317291,-0.010957591235637665,0.9997128844261169,-0.012740363366901875,0.01470135897397995,-0.010960299521684647
663764,0.9998779296875,-0.00567626953125,-0.007568359375,0.006591796875,32,30,2105,-3,-2,1,-91,123,-6084,0,53,-6085,0.01506003737449646,-0.011450931429862976,0.9997097849845886,-0.013100867159664631,0.015062282793223858,-0.011453754268586636
673791,0.9998779296875,-0.00592041015625,-0.00775146484375,0.00677490234375,32,29,2103,-3,-2,1,-94,126,-6086,0,53,-6087,0.015420816838741302,-0.011944405734539032,0.9997066259384155,-0.01346118375658989,0.015423018485307693,-0.01194734312593937
684006,0.9998779296875,-0.00616455078125,-0.0079345703125,0.0069580078125,30,29,2104,-3,-2,1,-99,130,-6085,-3,54,-6086,0.01578141748905182,-0.012438014149665833,0.9997032880783081,-0.013821308501064777,0.01578356884419918,-0.012441064231097698
693995,0.9998779296875,-0.00640869140625,-0.00811767578125,0.007080078125,30,27,2104,-3,-2,1,-102,132,-6085,-4,53,-6086,0.016142621636390686,-0.012930765748023987,0.9996989965438843,-0.014059164561331272,0.016144728288054466,-0.012933937832713127
703980,0.9998779296875,-0.00665283203125,-0.00830078125,0.00726318359375,31,26,2103,-3,-2,1,-104,135,-6086,-4,53,-6087,0.016502894461154938,-0.013424620032310486,0.9996954202651978,-0.014418911188840866,0.016504934057593346,-0.013427902944386005
713980,0.9998779296875,-0.0069580078125,-0.00848388671875,0.0074462890625,31,28,2104,-3,-2,1,-107,143,-6085,-5,57,-6086,0.01686207950115204,-0.014040663838386536,0.9996908903121948,-0.014777407981455326,0.016864031553268433,-0.014044081792235374
723972,0.9998779296875,-0.00714111328125,-0.0086669921875,0.00762939453125,32,29,2104,-3,-2,1,-109,147,-6085,-5,59,-6087,0.017222903668880463,-0.014412730932235718,0.9996879696846008,-0.01513783261179924,0.017224784940481186,-0.014416230842471123
733969,0.9998779296875,-0.00738525390625,-0.0089111328125,0.0078125,32,29,2105,-3,-2,1,-113,151,-6084,-6,60,-6086,0.017704695463180542,-0.014907941222190857,0.9996829628944397,-0.015496106818318367,0.01770648919045925,-0.014911564067006111
743964,0.9998779296875,-0.00762939453125,-0.00909423828125,0.00799560546875,31,30,2108,-3,-2,1,-116,156,-6081,-7,62,-6083,0.01806425303220749,-0.015402354300022125,0.9996788501739502,-0.015855059027671814,0.01806594617664814,-0.015406083315610886
753547,0.9998779296875,-0.00787353515625,-0.00927734375,0.0081787109375,32,30,2109,-3,-2,1,-118,160,-6080,-6,63,-6082,0.01842363178730011,-0.015896901488304138,0.9996746778488159,-0.01621381938457489,0.018425211310386658,-0.015900732949376106
763568,0.9998779296875,-0.00811767578125,-0.00946044921875,0.00830078125,32,31,2110,-3,-2,1,-121,165,-6079,-7,65,-6081,0.018783822655677795,-0.016390427947044373,0.9996693134307861,-0.016450321301817894,0.018785301595926285,-0.01639438048005104
773595,0.9998779296875,-0.00836181640625,-0.0096435546875,0.00848388671875,32,31,2107,-3,-2,1,-124,169,-6082,-8,66,-6085,0.01914287358522415,-0.016885221004486084,0.9996649622917175,-0.016808701679110527,0.019144218415021896,-0.01688927412033081
783621,0.99981689453125,-0.00860595703125,-0.00982666015625,0.0086669921875,32,32,2110,-3,-2,1,-127,174,-6078,-9,68,-6080,0.019500546157360077,-0.017379097640514374,0.9995383024215698,-0.017170017585158348,0.019504131749272346,-0.017385374754667282
793645,0.99981689453125,-0.00885009765625,-0.010009765625,0.00885009765625,32,32,2108,-3,-2,1,-130,178,-6080,-10,69,-6082,0.01985921710729599,-0.017874129116535187,0.9995336532592773,-0.017528075724840164,0.019862692803144455,-0.01788056269288063
803862,0.99981689453125,-0.009033203125,-0.01019287109375,0.009033203125,31,33,2106,-3,-2,1,-134,182,-6082,-12,70,-6085,0.02021881192922592,-0.018247246742248535,0.9995299577713013,-0.01788722351193428,0.020222194492816925,-0.01825379952788353
813860,0.99981689453125,-0.00927734375,-0.0103759765625,0.00921630859375,28,31,2107,-3,-2,1,-140,184,-6081,-16,69,-6084,0.020577147603034973,-0.018742546439170837,0.9995250701904297,-0.018244916573166847,0.02058040164411068,-0.018749253824353218
823855,0.99981689453125,-0.009521484375,-0.01055908203125,0.0093994140625,30,30,2106,-3,-2,1,-141,187,-6082,-14,69,-6085,0.0209353044629097,-0.019237980246543884,0.9995200037956238,-0.018602414056658745,0.020938418805599213,-0.01924484223127365
833853,0.99981689453125,-0.009765625,-0.0107421875,0.009521484375,29,31,2105,-3,-2,1,-145,192,-6083,-16,71,-6086,0.021294474601745605,-0.019732236862182617,0.9995137453079224,-0.01883764937520027,0.02129746414721012,-0.019739272072911263
843441,0.99981689453125,-0.010009765625,-0.01092529296875,0.00970458984375,30,30,2106,-3,-2,1,-147,195,-6081,-16,71,-6085,0.021652303636074066,-0.020227916538715363,0.9995084404945374,-0.01919475942850113,0.0216551311314106,-0.020235102623701096
853454,0.99981689453125,-0.01025390625,-0.0111083984375,0.0098876953125,29,28,2107,-3,-2,1,-151,197,-6080,-18,70,-6084,0.0220099538564682,-0.020723730325698853,0.9995030760765076,-0.019551675766706467,0.022012608125805855,-0.020731063559651375
863481,0.99981689453125,-0.010498046875,-0.01129150390625,0.01007080078125,30,28,2108,-3,-2,1,-153,201,-6079,-18,71,-6083,0.02236742526292801,-0.021219678223133087,0.9994975924491882,-0.019908398389816284,0.02236989513039589,-0.0212271548807621
873509,0.99981689453125,-0.0107421875,-0.011474609375,0.01025390625,31,30,2107,-3,-2,1,-155,207,-6080,-18,74,-6084,0.02272471785545349,-0.021715760231018066,0.9994919300079346,-0.020264921709895134,0.022726992145180702,-0.02172338031232357
883534,0.99981689453125,-0.01092529296875,-0.01165771484375,0.01043701171875,30,31,2110,-3,-2,1,-159,211,-6077,-20,76,-6082,0.02308310568332672,-0.02208992838859558,0.9994875192642212,-0.020622728392481804,0.023085201159119606,-0.02209765836596489
893749,0.999755859375,-0.01116943359375,-0.0118408203125,0.01055908203125,32,31,2110,-3,-2,1,-160,216,-6076,-19,78,-6080,0.023439981043338776,-0.02258346974849701,0.9993583559989929,-0.020860638469457626,0.02344474568963051,-0.02259412407875061
903739,0.999755859375,-0.01141357421875,-0.01202392578125,0.0107421875,31,31,2107,-3,-2,1,-163,220,-6079,-19,79,-6084,0.023796766996383667,-0.023079901933670044,0.9993522763252258,-0.02121666446328163,0.023801345378160477,-0.023090755566954613
913729,0.999755859375,-0.01165771484375,-0.01220703125,0.01092529296875,30,30,2106,-3,-2,1,-167,223,-6080,-21,79,-6085,0.024153374135494232,-0.023576468229293823,0.9993462562561035,-0.021572494879364967,0.024157749488949776,-0.023587515577673912
923721,0.999755859375,-0.01190185546875,-0.01239013671875,0.0111083984375,30,31,2105,-3,-2,1,-170,228,-6081,-22,80,-6086,0.02450980246067047,-0.024073168635368347,0.9993399381637573,-0.021928127855062485,0.024513965472579002,-0.024084409698843956
933721,0.999755859375,-0.01214599609375,-0.0125732421875,0.01129150390625,31,30,2104,-3,-2,1,-172,231,-6082,-22,80,-6087,0.024866051971912384,-0.024570003151893616,0.9993336796760559,-0.022283561527729034,0.02486998774111271,-0.024581432342529297
943717,0.999755859375,-0.01239013671875,-0.01275634765625,0.011474609375,29,30,2105,-3,-2,1,-177,235,-6081,-25,81,-6087,0.02522212266921997,-0.02506697177886963,0.9993271827697754,-0.022638797760009766,0.025225816294550896,-0.02507859095931053
953297,0.999755859375,-0.01263427734375,-0.012939453125,0.0115966796875,30,28,2106,-3,-2,1,-179,237,-6080,-25,80,-6086,0.025579556822776794,-0.02556249499320984,0.9993191957473755,-0.022871779277920723,0.02558303065598011,-0.02557433396577835
963321,0.999755859375,-0.0128173828125,-0.01312255859375,0.0118408203125,30,30,2107,-3,-2,1,-182,242,-6079,-26,83,-6085,0.02593517303466797,-0.025939270853996277,0.9993155002593994,-0.02335035242140293,0.025938380509614944,-0.025951210409402847
973347,0.99969482421875,-0.0130615234375,-0.0133056640625,0.011962890625,30,30,2105,-3,-2,1,-185,246,-6080,-27,84,-6086,0.02629069983959198,-0.026433423161506653,0.9991852641105652,-0.023587264120578766,0.02629687264561653,-0.0264488086104393
983374,0.99969482421875,-0.0133056640625,-0.01348876953125,0.01214599609375,32,29,2105,-3,-2,1,-186,249,-6080,-25,84,-6086,0.02664608508348465,-0.026930876076221466,0.9991782903671265,-0.023941796272993088,0.026652004569768906,-0.026946498081088066
993390,0.99969482421875,-0.01348876953125,-0.013671875,0.0123291015625,30,30,2104,-3,-2,1,-191,253,-6081,-28,86,-6088,0.027002796530723572,-0.02730643004179001,0.9991728663444519,-0.02429787628352642,0.02700849436223507,-0.027322234585881233
1003598,0.99969482421875,-0.01373291015625,-0.01385498046875,0.01251220703125,32,30,2104,-3,-2,1,-192,257,-6081,-27,87,-6088,0.02735784649848938,-0.02780415117740631,0.9991657733917236,-0.024652035906910896,0.027363261207938194,-0.02782018668949604
1013585,0.99969482421875,-0.013916015625,-0.0140380859375,0.0126953125,32,31,2102,-3,-2,1,-195,261,-6083,-28,88,-6090,0.027714267373085022,-0.028179973363876343,0.9991602301597595,-0.025007791817188263,0.02771943248808384,-0.0281961839646101
1023569,0.99969482421875,-0.01416015625,-0.01422119140625,0.01287841796875,33,33,2103,-3,-2,1,-196,267,-6082,-27,91,-6090,0.02806898206472397,-0.028677962720394135,0.9991528987884521,-0.025361575186252594,0.028073837980628014,-0.02869439870119095
1033568,0.99969482421875,-0.014404296875,-0.014404296875,0.01300048828125,32,32,2104,-3,-2,1,-200,270,-6080,-29,91,-6088,0.028425276279449463,-0.029174327850341797,0.9991438388824463,-0.02559310384094715,0.028429850935935974,-0.0291910320520401
1043561,0.99969482421875,-0.0146484375,-0.01458740234375,0.01318359375,31,32,2103,-3,-2,1,-204,275,-6081,-31,93,-6089,0.028779663145542145,-0.029672563076019287,0.999136209487915,-0.025946486741304398,0.028783896937966347,-0.02968948893249035
1053555,0.9996337890625,-0.01483154296875,-0.0147705078125,0.01336669921875,30,31,2103,-3,-2,1,-208,277,-6080,-33,93,-6088,0.02913369983434677,-0.030047088861465454,0.9990082383155823,-0.026306359097361565,0.02914118766784668,-0.03006785362958908
1063559,0.9996337890625,-0.01507568359375,-0.01495361328125,0.0135498046875,30,30,2108,-3,-2,1,-211,280,-6075,-34,93,-6083,0.0294877290725708,-0.030545562505722046,0.9990003705024719,-0.02665942907333374,0.029494890943169594,-0.03056660294532776
1073557,0.9996337890625,-0.0152587890625,-0.01513671875,0.013671875,30,31,2108,-3,-2,1,-214,284,-6075,-35,94,-6084,0.029845118522644043,-0.030920296907424927,0.9989926815032959,-0.02689218707382679,0.029852043837308884,-0.030941598117351532
1083139,0.9996337890625,-0.0155029296875,-0.0152587890625,0.01385498046875,28,31,2108,-3,-2,1,-218,288,-6075,-37,95,-6084,0.03007681667804718,-0.031417325139045715,0.998986542224884,-0.02724677324295044,0.030083373188972473,-0.031438834965229034
1093165,0.9996337890625,-0.0157470703125,-0.01544189453125,0.0140380859375,28,29,2109,-3,-2,1,-221,290,-6074,-38,94,-6083,0.03043036162853241,-0.03191615641117096,0.998978316783905,-0.027599293738603592,0.030436545610427856,-0.03193793445825577
1103192,0.9996337890625,-0.01593017578125,-0.015625,0.01422119140625,29,30,2107,-3,-2,1,-223,294,-6076,-38,96,-6086,0.030785463750362396,-0.03229309618473053,0.9989719986915588,-0.027953624725341797,0.03079131990671158,-0.032315075397491455
1113218,0.9996337890625,-0.01617431640625,-0.01580810546875,0.014404296875,29,31,2109,-3,-2,1,-226,299,-6074,-39,98,-6084,0.031138673424720764,-0.03279219567775726,0.9989636540412903,-0.028305765241384506,0.031144123524427414,-0.03281443193554878
1123234,0.99957275390625,-0.01641845703125,-0.0159912109375,0.01458740234375,31,31,2106,-3,-2,1,-226,303,-6076,-37,99,-6086,0.03148975223302841,-0.03328942507505417,0.998833179473877,-0.028662914410233498,0.03149862587451935,-0.033315982669591904
1133448,0.99957275390625,-0.0166015625,-0.01617431640625,0.0147705078125,29,30,2108,-3,-2,1,-231,305,-6074,-40,99,-6084,0.03184438496828079,-0.03366674482822418,0.9988266229629517,-0.029016802087426186,0.03185292333364487,-0.03369354084134102
1143451,0.99957275390625,-0.016845703125,-0.016357421875,0.014892578125,30,31,2107,-3,-2,1,-233,310,-6075,-40,100,-6085,0.03219911456108093,-0.034164220094680786,0.9988161325454712,-0.029246367514133453,0.032207295298576355,-0.03419138491153717
1153450,0.99957275390625,-0.01702880859375,-0.0164794921875,0.01507568359375,29,32,2105,-3,-2,1,-236,314,-6077,-41,102,-6088,0.032431460916996,-0.03453994542360306,0.9988114237785339,-0.02960200421512127,0.03243927285075188,-0.034567270427942276
1163035,0.99957275390625,-0.01727294921875,-0.01666259765625,0.0152587890625,30,30,2102,-3,-2,1,-238,317,-6080,-41,102,-6091,0.03278382867574692,-0.035039640963077545,0.9988024830818176,-0.02995326742529869,0.032791197299957275,-0.03506727144122124
1173048,0.99957275390625,-0.01751708984375,-0.016845703125,0.01544189453125,31,30,2102,-3,-2,1,-240,321,-6080,-41,103,-6092,0.03313601762056351,-0.03553947061300278,0.9987935423851013,-0.030304331332445145,0.03314292058348656,-0.03556739538908005
1183077,0.99957275390625,-0.0177001953125,-0.01702880859375,0.015625,29,29,2101,-3,-2,1,-245,323,-6081,-44,102,-6093,0.03348993510007858,-0.03591741621494293,0.9987865686416626,-0.030657397583127022,0.0334964282810688,-0.03594556450843811
1193106,0.99951171875,-0.0179443359375,-0.0172119140625,0.01580810546875,31,29,2102,-3,-2,1,-246,327,-6078,-43,103,-6090,0.03383968770503998,-0.03641532361507416,0.998655378818512,-0.031013714149594307,0.0338498130440712,-0.03644820675253868
1203334,0.99951171875,-0.01812744140625,-0.01739501953125,0.01593017578125,32,29,2104,-3,-2,1,-248,330,-6076,-43,104,-6088,0.03419550508260727,-0.03679139167070389,0.9986462593078613,-0.031244458630681038,0.03420529514551163,-0.03682461008429527
1213338,0.99951171875,-0.018310546875,-0.017578125,0.01611328125,29,30,2106,-3,-2,1,-254,334,-6074,-47,106,-6086,0.03454899787902832,-0.037169694900512695,0.9986390471458435,-0.03159710019826889,0.03455837815999985,-0.03720317780971527
1223322,0.99951171875,-0.0185546875,-0.0177001953125,0.01629638671875,28,29,2106,-3,-2,1,-256,337,-6074,-47,106,-6087,0.03477835655212402,-0.03766815364360809,0.9986317157745361,-0.031949542462825775,0.034787219017744064,-0.037701889872550964
1233306,0.99951171875,-0.018798828125,-0.01788330078125,0.0164794921875,29,27,2105,-3,-2,1,-258,339,-6075,-47,105,-6088,0.035129547119140625,-0.038168713450431824,0.9986220002174377,-0.03229954093694687,0.03513788804411888,-0.038202784955501556
1243303,0.99951171875,-0.01898193359375,-0.01806640625,0.01666259765625,28,26,2105,-3,-2,1,-262,341,-6075,-49,104,-6089,0.03548259288072586,-0.038547396659851074,0.9986146092414856,-0.03265168517827988,0.03549046814441681,-0.038581717759370804
1253297,0.99945068359375,-0.01922607421875,-0.01824951171875,0.016845703125,27,28,2104,-3,-2,1,-266,347,-6075,-51,107,-6088,0.03583122044801712,-0.03904587775468826,0.9984827041625977,-0.033007293939590454,0.035842906683683395,-0.03908529505133629
1263288,0.99945068359375,-0.0194091796875,-0.01837158203125,0.0169677734375,27,27,2105,-3,-2,1,-268,349,-6074,-52,107,-6088,0.03606431931257248,-0.039420485496520996,0.9984753131866455,-0.033239495009183884,0.036075618118047714,-0.039460189640522
1273282,0.99945068359375,-0.0196533203125,-0.0185546875,0.01715087890625,28,28,2105,-3,-2,1,-270,355,-6074,-52,110,-6088,0.036414846777915955,-0.039921507239341736,0.9984652996063232,-0.03358881175518036,0.03642558306455612,-0.03996158391237259
1283278,0.99945068359375,-0.0198974609375,-0.01873779296875,0.017333984375,28,28,2103,-3,-2,1,-273,359,-6076,-53,111,-6091,0.036765195429325104,-0.04042266309261322,0.9984551072120667,-0.03393791988492012,0.03677535057067871,-0.04046310856938362
1293269,0.99945068359375,-0.02008056640625,-0.0189208984375,0.01751708984375,27,29,2103,-3,-2,1,-277,363,-6076,-54,112,-6091,0.037117503583431244,-0.04080194979906082,0.9984472990036011,-0.034289292991161346,0.03712715581059456,-0.040842678397893906
1303268,0.99945068359375,-0.02032470703125,-0.01904296875,0.0177001953125,30,31,2105,-3,-2,1,-275,369,-6074,-51,115,-6090,0.037345513701438904,-0.04130121320486069,0.9984391927719116,-0.034640487283468246,0.037354547530412674,-0.04134220629930496
1312846,0.9993896484375,-0.0205078125,-0.01922607421875,0.01788330078125,30,29,2103,-3,-2,1,-278,370,-6075,-52,114,-6090,0.03769518435001373,-0.04167824238538742,0.9983092546463013,-0.034997906535863876,0.03770827874541283,-0.04172459989786148
1322867,0.9993896484375,-0.020751953125,-0.0194091796875,0.01806640625,32,29,2102,-3,-2,1,-279,374,-6076,-51,115,-6092,0.03804484009742737,-0.042179882526397705,0.998298704624176,-0.03534632548689842,0.038057319819927216,-0.042226649820804596
1332895,0.9993896484375,-0.02093505859375,-0.01959228515625,0.0181884765625,32,30,2100,-3,-2,1,-282,378,-6077,-52,116,-6093,0.0383991003036499,-0.04255726933479309,0.9982883334159851,-0.03557506948709488,0.038411132991313934,-0.042604438960552216
1342919,0.9993896484375,-0.02117919921875,-0.019775390625,0.01837158203125,33,29,2103,-3,-2,1,-284,381,-6074,-52,117,-6090,0.038748450577259064,-0.043059155344963074,0.9982775449752808,-0.03592309728264809,0.038759831339120865,-0.04310673102736473
1352945,0.9993896484375,-0.0213623046875,-0.01995849609375,0.0185546875,33,28,2101,-3,-2,1,-287,383,-6076,-53,116,-6093,0.039099887013435364,-0.04343917965888977,0.998269259929657,-0.0362735390663147,0.0391106940805912,-0.0434870570898056
1363162,0.9993896484375,-0.02154541015625,-0.02008056640625,0.01873779296875,31,30,2102,-3,-2,1,-291,388,-6075,-56,119,-6092,0.03932919353246689,-0.043817050755023956,0.9982633590698242,-0.03662645071744919,0.03933940827846527,-0.04386512190103531
1373162,0.99932861328125,-0.02178955078125,-0.020263671875,0.0189208984375,31,30,2104,-3,-2,1,-294,393,-6072,-57,121,-6089,0.039675578474998474,-0.04431665688753128,0.9981302618980408,-0.03698064014315605,0.03968992456793785,-0.04437053203582764
1383157,0.99932861328125,-0.02197265625,-0.02044677734375,0.01910400390625,30,30,2105,-3,-2,1,-297,396,-6071,-58,121,-6089,0.04002656787633896,-0.04469703882932663,0.9981217980384827,-0.037330664694309235,0.04004032537341118,-0.04475124925374985
1393149,0.99932861328125,-0.022216796875,-0.0206298828125,0.019287109375,29,29,2103,-3,-2,1,-301,399,-6073,-59,121,-6091,0.04037506878376007,-0.04519954323768616,0.9981105327606201,-0.03767780587077141,0.040388111025094986,-0.045254193246364594
1402736,0.99932861328125,-0.02239990234375,-0.020751953125,0.0194091796875,31,32,2104,-3,-2,1,-301,405,-6072,-58,125,-6091,0.04060651361942291,-0.04557528346776962,0.9981020092964172,-0.03790820389986038,0.040619030594825745,-0.04563025385141373
1412761,0.99932861328125,-0.0225830078125,-0.02093505859375,0.01959228515625,31,33,2104,-3,-2,1,-304,409,-6072,-59,126,-6091,0.04095710068941116,-0.045956023037433624,0.99809330701828,-0.03825775161385536,0.04096897691488266,-0.046011317521333694
1422789,0.999267578125,-0.0228271484375,-0.02105712890625,0.019775390625,29,32,2105,-3,-2,1,-308,412,-6070,-62,126,-6089,0.041180580854415894,-0.04645368456840515,0.9979622960090637,-0.038614142686128616,0.04119671508669853,-0.04651496186852455
1432814,0.999267578125,-0.02301025390625,-0.021240234375,0.01995849609375,28,32,2106,-3,-2,1,-312,415,-6069,-64,127,-6088,0.041530855000019073,-0.04683464765548706,0.9979534149169922,-0.038963425904512405,0.041546352207660675,-0.04689628630876541
1443034,0.999267578125,-0.02325439453125,-0.02142333984375,0.02008056640625,28,32,2104,-3,-2,1,-315,419,-6071,-65,128,-6091,0.04188137501478195,-0.04733511060476303,0.9979391694068909,-0.03918769210577011,0.04189620167016983,-0.04739733785390854
1453034,0.999267578125,-0.0234375,-0.02154541015625,0.020263671875,30,32,2105,-3,-2,1,-314,422,-6070,-62,129,-6090,0.042109400033950806,-0.04771384596824646,0.9979327917098999,-0.03953949362039566,0.042123548686504364,-0.047776300460100174
1463030,0.999267578125,-0.02362060546875,-0.021728515625,0.02044677734375,30,33,2104,-3,-2,1,-317,426,-6070,-63,130,-6091,0.04245927184820175,-0.04809516668319702,0.9979236721992493,-0.039888300001621246,0.042472727596759796,-0.04815797135233879
1473019,0.99920654296875,-0.02386474609375,-0.02191162109375,0.0206298828125,28,35,2104,-3,-2,1,-322,433,-6069,-67,134,-6090,0.0428038164973259,-0.04859568923711777,0.9977896809577942,-0.04024133458733559,0.04282165691256523,-0.0486648865044117
1483007,0.99920654296875,-0.0240478515625,-0.02203369140625,0.02081298828125,27,35,2105,-3,-2,1,-325,436,-6068,-68,135,-6089,0.04303140193223953,-0.048974715173244476,0.9977831840515137,-0.04059278964996338,0.04304853454232216,-0.0490441620349884
1492995,0.99920654296875,-0.02423095703125,-0.022216796875,0.02093505859375,27,34,2104,-3,-2,1,-328,438,-6069,-69,134,-6091,0.04338378459215164,-0.04935368150472641,0.9977712631225586,-0.04081914946436882,0.04340032860636711,-0.049423642456531525
1502980,0.99920654296875,-0.02447509765625,-0.02239990234375,0.0211181640625,27,33,2105,-3,-2,1,-331,441,-6068,-70,134,-6090,0.04373051971197128,-0.04985744506120682,0.9977589249610901,-0.04116439074277878,0.04374619945883751,-0.04992790147662163
1512980,0.99920654296875,-0.024658203125,-0.02252197265625,0.02130126953125,27,32,2105,-3,-2,1,-333,443,-6068,-71,134,-6091,0.043957702815532684,-0.050236769020557404,0.9977522492408752,-0.04151543602347374,0.04397262632846832,-0.05030746012926102
1522972,0.9991455078125,-0.02484130859375,-0.022705078125,0.021484375,29,33,2105,-3,-2,1,-333,447,-6067,-69,136,-6089,0.044303953647613525,-0.05061577260494232,0.997620701789856,-0.041870929300785065,0.04432351887226105,-0.050693023949861526
1532972,0.9991455078125,-0.02508544921875,-0.0228271484375,0.02166748046875,31,31,2103,-3,-2,1,-333,449,-6069,-67,134,-6092,0.044528208673000336,-0.05111724138259888,0.997610867023468,-0.042218729853630066,0.04454687982797623,-0.05119488388299942
1542558,0.9991455078125,-0.0252685546875,-0.02301025390625,0.0218505859375,31,31,2104,-3,-2,1,-336,452,-6068,-68,135,-6091,0.04487691819667816,-0.05149950087070465,0.9976012110710144,-0.04256635904312134,0.04489481821656227,-0.051577549427747726
1552583,0.9991455078125,-0.0255126953125,-0.023193359375,0.02203369140625,30,30,2106,-3,-2,1,-340,456,-6066,-70,136,-6090,0.04522280395030975,-0.05200386047363281,0.9975883960723877,-0.04291072487831116,0.04523976519703865,-0.05208243429660797
1562599,0.9991455078125,-0.02569580078125,-0.0233154296875,0.022216796875,30,32,2106,-3,-2,1,-342,461,-6066,-71,139,-6091,0.045449256896972656,-0.052383676171302795,0.997581422328949,-0.04326112940907478,0.04546540975570679,-0.05246249586343765
1572621,0.99908447265625,-0.02587890625,-0.02349853515625,0.02239990234375,32,32,2106,-3,-2,1,-343,464,-6065,-70,139,-6089,0.04579467326402664,-0.05276315659284592,0.9974496364593506,-0.04361617565155029,0.04581558331847191,-0.05284880846738815
1582653,0.99908447265625,-0.026123046875,-0.023681640625,0.0225830078125,33,33,2106,-3,-2,1,-344,469,-6065,-69,141,-6090,0.046140044927597046,-0.053267866373062134,0.9974365234375,-0.04396003484725952,0.04615999013185501,-0.05335408076643944
1592864,0.99908447265625,-0.02630615234375,-0.0238037109375,0.022705078125,31,33,2106,-3,-2,1,-348,472,-6064,-72,142,-6089,0.046369269490242004,-0.053645066916942596,0.9974266886711121,-0.04418808966875076,0.04638850316405296,-0.05373169854283333
1602859,0.99908447265625,-0.0264892578125,-0.02398681640625,0.02288818359375,31,33,2105,-3,-2,1,-351,475,-6065,-73,142,-6091,0.04671712964773178,-0.054028041660785675,0.997416615486145,-0.04453479126095772,0.04673551023006439,-0.054115090519189835
1612853,0.99908447265625,-0.0267333984375,-0.02410888671875,0.0230712890625,31,32,2105,-3,-2,1,-353,478,-6065,-73,142,-6091,0.04694008082151413,-0.05453029274940491,0.9974061250686646,-0.04488135129213333,0.046957433223724365,-0.054617732763290405
1622851,0.9990234375,-0.02691650390625,-0.0242919921875,0.02325439453125,29,32,2107,-3,-2,1,-358,481,-6062,-77,143,-6088,0.04728468507528305,-0.05491022765636444,0.9972740411758423,-0.045235928148031235,0.04730690270662308,-0.0550047792494297
1632851,0.9990234375,-0.027099609375,-0.02447509765625,0.02337646484375,29,31,2105,-3,-2,1,-361,483,-6064,-77,142,-6091,0.047635406255722046,-0.055290572345256805,0.9972608685493469,-0.04546019807457924,0.04765688627958298,-0.055385734885931015
1642439,0.9990234375,-0.02728271484375,-0.02459716796875,0.0235595703125,29,30,2103,-3,-2,1,-363,486,-6066,-78,143,-6093,0.047860756516456604,-0.05567114055156708,0.9972534775733948,-0.04580963775515556,0.047881338745355606,-0.05576657876372337
1652469,0.9990234375,-0.02752685546875,-0.0247802734375,0.02374267578125,29,29,2105,-3,-2,1,-365,489,-6064,-78,143,-6092,0.04820502549409866,-0.056176647543907166,0.9972397685050964,-0.046152263879776,0.048224519938230515,-0.05627266317605972
1662486,0.99896240234375,-0.0277099609375,-0.02490234375,0.02392578125,29,29,2102,-3,-2,1,-367,492,-6066,-79,143,-6094,0.048427045345306396,-0.05655403435230255,0.9971103668212891,-0.04650985822081566,0.0484515056014061,-0.056657224893569946
1672503,0.99896240234375,-0.02789306640625,-0.02508544921875,0.02410888671875,31,28,2105,-3,-2,1,-368,494,-6063,-78,143,-6091,0.04877389967441559,-0.0569378137588501,0.9970998167991638,-0.04685555025935173,0.04879743605852127,-0.0570414774119854
1682523,0.99896240234375,-0.02813720703125,-0.02520751953125,0.0242919921875,29,28,2105,-3,-2,1,-372,498,-6063,-80,144,-6092,0.04899571090936661,-0.057440705597400665,0.9970887899398804,-0.04720110073685646,0.04901812970638275,-0.05754481256008148
1692736,0.99896240234375,-0.0283203125,-0.025390625,0.0244140625,29,30,2105,-3,-2,1,-375,503,-6063,-81,147,-6092,0.04934573173522949,-0.05782163143157959,0.9970752000808716,-0.04742448031902313,0.049367327243089676,-0.05792636796832085
1702729,0.99896240234375,-0.02850341796875,-0.0255126953125,0.02459716796875,32,28,2105,-3,-2,1,-374,504,-6062,-79,146,-6092,0.0495702400803566,-0.05820276588201523,0.9970675706863403,-0.047773152589797974,0.04959084838628769,-0.05830777436494827
1712716,0.9989013671875,-0.0286865234375,-0.02569580078125,0.0247802734375,32,28,2104,-3,-2,1,-376,507,-6062,-79,146,-6091,0.049913421273231506,-0.05858351290225983,0.9969347715377808,-0.048126932233572006,0.0499391108751297,-0.058696139603853226
1722712,0.9989013671875,-0.0289306640625,-0.02581787109375,0.02496337890625,31,29,2105,-3,-2,1,-379,513,-6061,-81,149,-6091,0.05013459920883179,-0.05908676236867905,0.996923565864563,-0.04847191274166107,0.05015910789370537,-0.059199847280979156
1732701,0.9989013671875,-0.02911376953125,-0.0260009765625,0.025146484375,32,29,2103,-3,-2,1,-381,516,-6063,-81,150,-6094,0.05048060417175293,-0.05947123467922211,0.9969125986099243,-0.04881668463349342,0.05050409585237503,-0.05958479642868042
1742683,0.9989013671875,-0.029296875,-0.026123046875,0.0252685546875,29,29,2104,-3,-2,1,-386,519,-6062,-85,150,-6093,0.050708115100860596,-0.059849560260772705,0.9969016909599304,-0.04904290288686752,0.05073073133826256,-0.05996359512209892
1752675,0.99884033203125,-0.02947998046875,-0.02630615234375,0.02545166015625,28,29,2106,-3,-2,1,-390,522,-6059,-87,151,-6090,0.051050662994384766,-0.06023065745830536,0.9967687129974365,-0.049396321177482605,0.051078442484140396,-0.06035252660512924
1762674,0.99884033203125,-0.0296630859375,-0.02642822265625,0.025634765625,29,27,2102,-3,-2,1,-391,523,-6063,-86,149,-6095,0.051274336874485016,-0.06061233580112457,0.9967608451843262,-0.04974431172013283,0.05130106210708618,-0.06073451787233353
1772675,0.99884033203125,-0.02984619140625,-0.026611328125,0.02581787109375,30,28,2106,-3,-2,1,-392,527,-6059,-85,151,-6091,0.05161980539560318,-0.06099725514650345,0.9967496395111084,-0.05008852481842041,0.051645468920469284,-0.061119940131902695
1782259,0.99884033203125,-0.030029296875,-0.0267333984375,0.02593994140625,30,28,2105,-3,-2,1,-394,530,-6060,-86,152,-6093,0.05184687674045563,-0.06137587130069733,0.9967384934425354,-0.0503142774105072,0.05187162011861801,-0.06149905547499657
1792281,0.998779296875,-0.0302734375,-0.02691650390625,0.026123046875,29,30,2105,-3,-2,1,-398,536,-6059,-88,154,-6092,0.052185624837875366,-0.061879247426986694,0.9966015219688416,-0.05066371336579323,0.05221543088555336,-0.06201065331697464
1802308,0.998779296875,-0.03045654296875,-0.02703857421875,0.02630615234375,28,29,2106,-3,-2,1,-401,539,-6058,-90,155,-6091,0.052408747375011444,-0.06226129084825516,0.9965933561325073,-0.05101120471954346,0.05243745073676109,-0.062393028289079666
1812329,0.998779296875,-0.0306396484375,-0.02716064453125,0.0264892578125,27,28,2106,-3,-2,1,-404,541,-6058,-92,155,-6092,0.05263173580169678,-0.06264342367649078,0.9965852499008179,-0.05135858431458473,0.05265931785106659,-0.06277547776699066
1822348,0.998779296875,-0.03082275390625,-0.02728271484375,0.02667236328125,26,27,2106,-3,-2,1,-406,543,-6057,-92,154,-6091,0.052854590117931366,-0.06302564591169357,0.9965771436691284,-0.05170583352446556,0.05288103222846985,-0.06315800547599792
1832568,0.998779296875,-0.031005859375,-0.0274658203125,0.02679443359375,27,28,2108,-3,-2,1,-408,547,-6055,-92,156,-6090,0.05320301651954651,-0.06340788304805756,0.9965623021125793,-0.05192721635103226,0.053228478878736496,-0.06354095786809921
1842565,0.99871826171875,-0.03118896484375,-0.027587890625,0.0269775390625,28,28,2107,-3,-2,1,-409,550,-6055,-92,157,-6090,0.05342225730419159,-0.06378648430109024,0.9964321255683899,-0.052283670753240585,0.05345306172966957,-0.06392765045166016
1852557,0.99871826171875,-0.0313720703125,-0.02777099609375,0.02716064453125,28,28,2105,-3,-2,1,-412,553,-6057,-93,157,-6092,0.053766630589962006,-0.06417227536439896,0.9964205026626587,-0.05262676253914833,0.05379626527428627,-0.06431398540735245
1862557,0.99871826171875,-0.03155517578125,-0.02789306640625,0.02734375,30,29,2105,-3,-2,1,-412,557,-6057,-92,159,-6093,0.05398895591497421,-0.064554862678051,0.9964120984077454,-0.05297353118658066,0.05401740223169327,-0.06469689309597015
1872558,0.99871826171875,-0.03173828125,-0.028076171875,0.0274658203125,29,30,2106,-3,-2,1,-416,561,-6056,-94,160,-6093,0.05433693528175354,-0.06493747234344482,0.9963969588279724,-0.05319435894489288,0.05436435341835022,-0.06508025527000427
1882139,0.9986572265625,-0.03192138671875,-0.0281982421875,0.02764892578125,29,29,2105,-3,-2,1,-417,564,-6056,-94,161,-6092,0.05455557256937027,-0.0653163492679596,0.9962666034698486,-0.053550563752651215,0.05458841845393181,-0.06546742469072342
1892165,0.9986572265625,-0.0321044921875,-0.02838134765625,0.02783203125,31,29,2104,-3,-2,1,-418,567,-6057,-92,162,-6094,0.05489940941333771,-0.06570258736610413,0.9962546825408936,-0.05389309674501419,0.05493103340268135,-0.06585422158241272
1902192,0.9986572265625,-0.03228759765625,-0.02850341796875,0.02801513671875,29,29,2103,-3,-2,1,-422,570,-6058,-95,162,-6096,0.05512120574712753,-0.06608553975820541,0.9962461590766907,-0.054239388555288315,0.05515158548951149,-0.06623750180006027
1912216,0.9986572265625,-0.032470703125,-0.0286865234375,0.0281982421875,29,29,2104,-3,-2,1,-425,573,-6057,-96,163,-6095,0.05546477437019348,-0.06647202372550964,0.996234118938446,-0.054581597447395325,0.05549388378858566,-0.06662454456090927
1922234,0.99859619140625,-0.03265380859375,-0.02880859375,0.0283203125,29,30,2101,-3,-2,1,-427,577,-6059,-97,164,-6097,0.055686771869659424,-0.06684767454862595,0.9961001873016357,-0.05481560528278351,0.05572158470749855,-0.06700891256332397
1932451,0.99859619140625,-0.03289794921875,-0.02899169921875,0.02850341796875,28,31,2105,-3,-2,1,-430,582,-6054,-98,166,-6093,0.05602659285068512,-0.06735625863075256,0.9960839748382568,-0.05515357479453087,0.05605990067124367,-0.06751827895641327
1942448,0.99859619140625,-0.0330810546875,-0.02911376953125,0.0286865234375,29,31,2106,-3,-2,1,-431,585,-6053,-98,167,-6093,0.05624783784151077,-0.0677395761013031,0.9960752725601196,-0.055499374866485596,0.05627983808517456,-0.06790193170309067
1952440,0.99859619140625,-0.03326416015625,-0.029296875,0.02886962890625,29,29,2104,-3,-2,1,-434,587,-6055,-99,166,-6095,0.05659084767103195,-0.06812650710344315,0.9960629940032959,-0.055840976536273956,0.05662151426076889,-0.06828942894935608
1962440,0.99853515625,-0.033447265625,-0.0294189453125,0.029052734375,29,27,2104,-3,-2,1,-436,588,-6054,-99,165,-6094,0.0568082332611084,-0.06850594282150269,0.9959323406219482,-0.0561966672539711,0.05684448033571243,-0.06867755949497223
1972440,0.99853515625,-0.03363037109375,-0.029541015625,0.02923583984375,30,27,2105,-3,-2,1,-437,591,-6053,-99,166,-6093,0.057029061019420624,-0.06888952851295471,0.9959235191345215,-0.05654212459921837,0.05706396698951721,-0.06906149536371231
1982026,0.99853515625,-0.0338134765625,-0.02972412109375,0.02935791015625,29,27,2106,-3,-2,1,-441,594,-6052,-101,166,-6093,0.057375773787498474,-0.06927316635847092,0.9959074854850769,-0.05676138773560524,0.05740952864289284,-0.06944597512483597
1992048,0.99853515625,-0.03399658203125,-0.02984619140625,0.029541015625,30,30,2105,-3,-2,1,-441,600,-6053,-100,170,-6095,0.057596355676651,-0.06965693831443787,0.9958985447883606,-0.057106565684080124,0.057628728449344635,-0.06983008235692978
2002065,0.99847412109375,-0.0341796875,-0.030029296875,0.02972412109375,32,29,2107,-3,-2,1,-442,602,-6050,-99,170,-6092,0.05793502926826477,-0.0700402557849884,0.9957640767097473,-0.05745784938335419,0.05797305330634117,-0.07022254914045334
2012095,0.99847412109375,-0.03436279296875,-0.0301513671875,0.0299072265625,31,31,2103,-3,-2,1,-445,607,-6054,-101,172,-6096,0.058155328035354614,-0.07042420655488968,0.9957550764083862,-0.05780281126499176,0.05819195136427879,-0.07060685753822327
2022113,0.99847412109375,-0.0345458984375,-0.03033447265625,0.03009033203125,30,31,2105,-3,-2,1,-449,611,-6052,-103,174,-6095,0.05849737673997879,-0.0708119198679924,0.9957424402236938,-0.058143436908721924,0.05853256955742836,-0.07099517434835434
2032333,0.99847412109375,-0.03472900390625,-0.03045654296875,0.03021240234375,30,29,2106,-3,-2,1,-451,612,-6051,-104,172,-6095,0.058721646666526794,-0.07119235396385193,0.9957296252250671,-0.058366209268569946,0.05875562131404877,-0.07137621939182281
2042334,0.9984130859375,-0.034912109375,-0.0306396484375,0.0303955078125,29,26,2105,-3,-2,1,-454,612,-6050,-105,170,-6093,0.059059709310531616,-0.07157602906227112,0.9955949187278748,-0.05871713533997536,0.059099406003952026,-0.07176924496889114
2052333,0.9984130859375,-0.03509521484375,-0.03076171875,0.03057861328125,30,26,2105,-3,-2,1,-455,615,-6050,-104,170,-6094,0.05927947908639908,-0.07196034491062164,0.9955857992172241,-0.05906161293387413,0.05931771546602249,-0.07215392589569092
2061920,0.9984130859375,-0.0352783203125,-0.0308837890625,0.03070068359375,29,29,2107,-3,-2,1,-458,621,-6048,-106,174,-6093,0.05950342118740082,-0.07234098017215729,0.9955728650093079,-0.059284042567014694,0.05954040214419365,-0.0725351870059967
2071945,0.99835205078125,-0.03546142578125,-0.03106689453125,0.0308837890625,30,31,2108,-3,-2,1,-460,626,-6046,-107,177,-6091,0.05984102934598923,-0.07272490113973618,0.9954379200935364,-0.05963471531867981,0.05988380312919617,-0.07292862981557846
2081967,0.99835205078125,-0.03564453125,-0.03118896484375,0.03106689453125,28,31,2105,-3,-2,1,-464,629,-6049,-109,177,-6095,0.06006040424108505,-0.073109470307827,0.995428740978241,-0.05997885763645172,0.06010166555643082,-0.07331357151269913
2091996,0.99835205078125,-0.0357666015625,-0.0313720703125,0.03125,28,31,2103,-3,-2,1,-466,632,-6051,-109,178,-6097,0.06040532886981964,-0.07337607443332672,0.995419979095459,-0.060322847217321396,0.06044533848762512,-0.07358060032129288
2102025,0.99835205078125,-0.03594970703125,-0.031494140625,0.03143310546875,29,29,2104,-3,-2,1,-467,633,-6050,-109,177,-6097,0.06062445789575577,-0.07376084476709366,0.9954106211662292,-0.06066672131419182,0.06066292151808739,-0.07396573573350906
2112244,0.998291015625,-0.0361328125,-0.0316162109375,0.0316162109375,28,31,2105,-3,-2,1,-470,638,-6048,-111,180,-6095,0.06083959341049194,-0.07414129376411438,0.9952793717384338,-0.06102150306105614,0.060883913189172745,-0.0743556097149849
2122244,0.998291015625,-0.03631591796875,-0.03173828125,0.03173828125,28,31,2105,-3,-2,1,-472,641,-6048,-112,180,-6095,0.06106287240982056,-0.07452234625816345,0.9952660799026489,-0.06124326214194298,0.061105877161026,-0.07473734021186829
2131829,0.998291015625,-0.0364990234375,-0.03192138671875,0.03192138671875,29,32,2105,-3,-2,1,-474,645,-6048,-112,182,-6096,0.06140346825122833,-0.07491124421358109,0.995252788066864,-0.06158236414194107,0.061444882303476334,-0.07512690126895905
2141854,0.998291015625,-0.03668212890625,-0.03204345703125,0.0321044921875,29,31,2105,-3,-2,1,-475,647,-6048,-111,181,-6097,0.06162206828594208,-0.07529635727405548,0.9952432513237,-0.06192576512694359,0.06166187673807144,-0.07551237940788269
2151868,0.99822998046875,-0.036865234375,-0.03216552734375,0.03228759765625,31,30,2104,-3,-2,1,-475,649,-6047,-110,181,-6095,0.0618366077542305,-0.0756770595908165,0.9951119422912598,-0.06228028982877731,0.061882324516773224,-0.07590269297361374
2161891,0.99822998046875,-0.03704833984375,-0.03228759765625,0.032470703125,31,32,2103,-3,-2,1,-477,655,-6048,-111,185,-6097,0.06205492466688156,-0.07606232911348343,0.9951024055480957,-0.06262348592281342,0.06209901347756386,-0.07628834247589111
2171922,0.99822998046875,-0.0372314453125,-0.032470703125,0.0325927734375,29,32,2106,-3,-2,1,-482,658,-6045,-114,185,-6095,0.06239950656890869,-0.07644771039485931,0.9950848817825317,-0.06284011155366898,0.06244220212101936,-0.0766746997833252
2182135,0.99822998046875,-0.03741455078125,-0.0325927734375,0.03277587890625,30,31,2106,-3,-2,1,-482,660,-6045,-113,185,-6096,0.06261757761240005,-0.07683316618204117,0.9950752258300781,-0.06318303197622299,0.06265860050916672,-0.0770605206489563
2192124,0.9981689453125,-0.03759765625,-0.03271484375,0.032958984375,29,30,2106,-3,-2,1,-485,662,-6044,-115,184,-6095,0.06283152103424072,-0.07721412181854248,0.9949436783790588,-0.06353732198476791,0.06287851184606552,-0.07745128870010376
2202112,0.9981689453125,-0.03778076171875,-0.03289794921875,0.03314208984375,28,31,2107,-3,-2,1,-489,666,-6043,-117,186,-6094,0.0631711557507515,-0.077603779733181,0.9949299097061157,-0.06387542188167572,0.06321646273136139,-0.07784163951873779
2212111,0.9981689453125,-0.0379638671875,-0.03302001953125,0.03326416015625,30,29,2107,-3,-2,1,-489,667,-6043,-115,185,-6095,0.06339344382286072,-0.07798547297716141,0.9949161410331726,-0.0640961080789566,0.06343729048967361,-0.07822402566671371
2222113,0.99810791015625,-0.03814697265625,-0.03314208984375,0.033447265625,30,30,2105,-3,-2,1,-491,671,-6044,-116,186,-6096,0.06360694020986557,-0.07836661487817764,0.9947845339775085,-0.06445019692182541,0.06365681439638138,-0.07861512154340744
2231700,0.99810791015625,-0.03826904296875,-0.03326416015625,0.03363037109375,29,30,2104,-3,-2,1,-493,674,-6045,-117,187,-6097,0.06382843852043152,-0.07863064110279083,0.9947793483734131,-0.06479723751544952,0.06387688219547272,-0.07887929677963257
2241722,0.99810791015625,-0.0384521484375,-0.033447265625,0.0338134765625,30,29,2103,-3,-2,1,-495,676,-6046,-117,187,-6099,0.0641675591468811,-0.07902072370052338,0.9947654604911804,-0.06513480097055435,0.06421424448490143,-0.07927008718252182
2251751,0.99810791015625,-0.03863525390625,-0.0335693359375,0.03399658203125,31,32,2105,-3,-2,1,-496,682,-6044,-117,191,-6098,0.06438470631837845,-0.07940679043531418,0.9947556257247925,-0.0654769018292427,0.06442961096763611,-0.07965651899576187
2261764,0.998046875,-0.038818359375,-0.03369140625,0.0341796875,31,33,2106,-3,-2,1,-498,686,-6041,-118,192,-6095,0.06459760665893555,-0.0797882080078125,0.9946238398551941,-0.0658307671546936,0.0646485835313797,-0.08004806190729141
2271791,0.998046875,-0.03900146484375,-0.0338134765625,0.0343017578125,30,32,2106,-3,-2,1,-500,688,-6041,-119,192,-6096,0.06481923162937164,-0.08017030358314514,0.9946097135543823,-0.06605078279972076,0.06486869603395462,-0.08043089509010315
2282006,0.998046875,-0.0391845703125,-0.03399658203125,0.03448486328125,30,33,2104,-3,-2,1,-503,692,-6043,-120,193,-6098,0.06515781581401825,-0.08056081086397171,0.9945955872535706,-0.06638777256011963,0.06520543992519379,-0.08082211762666702
2291996,0.99798583984375,-0.039306640625,-0.03411865234375,0.03466796875,29,33,2105,-3,-2,1,-506,695,-6041,-121,195,-6096,0.06537450104951859,-0.08082059025764465,0.9944685101509094,-0.06674626469612122,0.06542857736349106,-0.08109191805124283
2301995,0.99798583984375,-0.03948974609375,-0.03424072265625,0.03485107421875,28,32,2105,-3,-2,1,-509,697,-6041,-123,194,-6097,0.0655909925699234,-0.08120706677436829,0.9944584965705872,-0.06708782911300659,0.06564322859048843,-0.0814787968993187
2311980,0.99798583984375,-0.0396728515625,-0.03436279296875,0.0350341796875,28,34,2106,-3,-2,1,-511,702,-6040,-124,197,-6097,0.06580734997987747,-0.08159363269805908,0.9944483637809753,-0.06742926687002182,0.06585771590471268,-0.08186575770378113
2321982,0.99798583984375,-0.03985595703125,-0.03448486328125,0.03521728515625,29,34,2106,-3,-2,1,-511,705,-6040,-123,197,-6097,0.0660235732793808,-0.08198028802871704,0.9944382309913635,-0.06777055561542511,0.06607205420732498,-0.08225280046463013
2331980,0.9979248046875,-0.0400390625,-0.03460693359375,0.035400390625,28,31,2105,-3,-2,1,-514,705,-6040,-124,195,-6097,0.06623543798923492,-0.08236214518547058,0.9943063259124756,-0.06812402606010437,0.06629007309675217,-0.08264509588479996
2341972,0.9979248046875,-0.0401611328125,-0.0347900390625,0.03558349609375,27,32,2107,-3,-2,1,-518,708,-6038,-127,196,-6096,0.06657753884792328,-0.08263148367404938,0.9942968487739563,-0.06846512854099274,0.06663060188293457,-0.08291491121053696
2351558,0.9979248046875,-0.04034423828125,-0.034912109375,0.03570556640625,29,31,2107,-3,-2,1,-518,711,-6038,-125,197,-6097,0.06679829210042953,-0.08301414549350739,0.9942822456359863,-0.06868422031402588,0.0668497234582901,-0.08329833298921585
2361586,0.99786376953125,-0.04052734375,-0.0350341796875,0.035888671875,30,30,2108,-3,-2,1,-518,713,-6036,-124,197,-6094,0.06700973212718964,-0.08339619636535645,0.9941502809524536,-0.06903751939535141,0.06706736981868744,-0.08369097113609314
2371607,0.99786376953125,-0.04071044921875,-0.03515625,0.0360107421875,29,31,2108,-3,-2,1,-521,717,-6035,-126,198,-6094,0.06723026931285858,-0.08377896994352341,0.9941355586051941,-0.06925640255212784,0.06728626042604446,-0.08407452702522278
2381634,0.99786376953125,-0.04083251953125,-0.03533935546875,0.03619384765625,27,33,2110,-3,-2,1,-526,721,-6033,-129,200,-6093,0.06757195293903351,-0.08404871821403503,0.9941259026527405,-0.06959705054759979,0.06762631237506866,-0.0843447595834732
2391653,0.99786376953125,-0.041015625,-0.03546142578125,0.036376953125,28,31,2111,-3,-2,1,-527,722,-6032,-129,199,-6093,0.0677872970700264,-0.08443596959114075,0.9941155910491943,-0.06993753463029861,0.06783964484930038,-0.08473240584135056
2401862,0.997802734375,-0.04119873046875,-0.03558349609375,0.03656005859375,28,30,2109,-3,-2,1,-529,724,-6033,-130,199,-6094,0.06799816340208054,-0.0848182812333107,0.9939833879470825,-0.07029058784246445,0.06805677711963654,-0.08512546867132187
2411860,0.997802734375,-0.0413818359375,-0.03570556640625,0.03668212890625,29,31,2109,-3,-2,1,-529,728,-6033,-129,200,-6094,0.06821827590465546,-0.08520133048295975,0.9939685463905334,-0.07050902396440506,0.06827517598867416,-0.08550931513309479
2421855,0.997802734375,-0.04156494140625,-0.03582763671875,0.036865234375,30,31,2107,-3,-2,1,-530,732,-6035,-128,202,-6097,0.06843322515487671,-0.08558881282806396,0.993958055973053,-0.07084917277097702,0.06848807632923126,-0.08589719235897064
2431852,0.99774169921875,-0.04168701171875,-0.0360107421875,0.03704833984375,31,32,2107,-3,-2,1,-532,735,-6034,-129,203,-6096,0.06876996904611588,-0.08585401624441147,0.9938265085220337,-0.07120206207036972,0.06883148103952408,-0.0861733928322792
2441848,0.99774169921875,-0.0418701171875,-0.0361328125,0.03717041015625,29,32,2105,-3,-2,1,-536,738,-6036,-131,203,-6099,0.06898976862430573,-0.08623726665973663,0.9938114881515503,-0.07142016291618347,0.06904952973127365,-0.08655744791030884
2451437,0.99774169921875,-0.04205322265625,-0.0362548828125,0.037353515625,29,32,2104,-3,-2,1,-537,741,-6037,-131,204,-6100,0.06920434534549713,-0.08662500232458115,0.993800938129425,-0.07175996899604797,0.06926201283931732,-0.08694559335708618
2461469,0.9976806640625,-0.042236328125,-0.036376953125,0.03753662109375,29,32,2105,-3,-2,1,-539,744,-6035,-132,205,-6098,0.06941434741020203,-0.08700767159461975,0.9936684966087341,-0.07211267203092575,0.0694783627986908,-0.08733931183815002
2471486,0.9976806640625,-0.0423583984375,-0.0364990234375,0.0377197265625,28,30,2104,-3,-2,1,-542,744,-6036,-133,203,-6100,0.06963324546813965,-0.08727377653121948,0.9936630725860596,-0.07245748490095139,0.06969550997018814,-0.0876055434346199
2481509,0.9976806640625,-0.04254150390625,-0.03668212890625,0.03790283203125,26,30,2104,-3,-2,1,-547,748,-6035,-136,204,-6100,0.06996921449899673,-0.08766638487577438,0.9936479926109314,-0.07279177010059357,0.07002932578325272,-0.08799894899129868
2491534,0.9976806640625,-0.042724609375,-0.03680419921875,0.03802490234375,27,31,2104,-3,-2,1,-547,752,-6035,-135,206,-6101,0.0701884776353836,-0.0880499854683876,0.9936326146125793,-0.07300926744937897,0.07024676352739334,-0.08838336169719696
2501734,0.99761962890625,-0.0428466796875,-0.03692626953125,0.0382080078125,27,32,2103,-3,-2,1,-549,755,-6035,-136,207,-6101,0.07040257006883621,-0.08831113576889038,0.9935053586959839,-0.07336698472499847,0.07046762853860855,-0.08865543454885483
2511728,0.99761962890625,-0.04302978515625,-0.03704833984375,0.03839111328125,26,30,2104,-3,-2,1,-552,756,-6034,-138,206,-6100,0.07061637938022614,-0.08869937062263489,0.9934946894645691,-0.07370612025260925,0.07067923992872238,-0.08904407918453217
2521716,0.99761962890625,-0.04315185546875,-0.03717041015625,0.03857421875,26,31,2106,-3,-2,1,-554,759,-6032,-139,207,-6099,0.07083476334810257,-0.08896591514348984,0.993489146232605,-0.07405044138431549,0.07089579850435257,-0.08931073546409607
2531701,0.99755859375,-0.0433349609375,-0.03729248046875,0.03875732421875,26,29,2106,-3,-2,1,-555,760,-6031,-139,206,-6098,0.07104377448558807,-0.08934903889894485,0.9933566451072693,-0.07440275698900223,0.07111122459173203,-0.08970518410205841
2541693,0.99755859375,-0.04351806640625,-0.03741455078125,0.03887939453125,26,29,2106,-3,-2,1,-557,764,-6031,-139,207,-6099,0.07126250118017197,-0.08973295241594315,0.9933410882949829,-0.07461974024772644,0.0713280662894249,-0.09008996188640594
2551682,0.99755859375,-0.04364013671875,-0.03759765625,0.0390625,26,31,2104,-3,-2,1,-560,768,-6033,-140,209,-6101,0.07160234451293945,-0.09000450372695923,0.9933309555053711,-0.07495847344398499,0.07166603952646255,-0.09036202728748322
2561677,0.99749755859375,-0.0438232421875,-0.0377197265625,0.03924560546875,27,33,2105,-3,-2,1,-561,773,-6031,-140,212,-6100,0.07181093096733093,-0.09038782119750977,0.9931983947753906,-0.0753106027841568,0.07188107818365097,-0.09075681120157242
2571675,0.99749755859375,-0.04400634765625,-0.037841796875,0.0394287109375,29,32,2107,-3,-2,1,-561,775,-6029,-139,212,-6098,0.07202397286891937,-0.09077655524015427,0.993187427520752,-0.07564906030893326,0.07209183275699615,-0.09114597737789154
2581674,0.99749755859375,-0.044189453125,-0.0379638671875,0.03955078125,27,31,2108,-3,-2,1,-564,777,-6028,-141,211,-6098,0.07224227488040924,-0.09116074442863464,0.9931716918945312,-0.07586556673049927,0.07230819016695023,-0.09153102338314056
2591259,0.99749755859375,-0.0443115234375,-0.0380859375,0.03973388671875,26,33,2107,-3,-2,1,-567,781,-6029,-143,213,-6100,0.07245992124080658,-0.09142787754535675,0.9931661486625671,-0.07620924711227417,0.07252389192581177,-0.09179825335741043
2601285,0.9974365234375,-0.04449462890625,-0.0382080078125,0.0399169921875,27,34,2108,-3,-2,1,-568,786,-6026,-143,216,-6097,0.07266794145107269,-0.09181143343448639,0.9930333495140076,-0.07656113058328629,0.07273842394351959,-0.09219343960285187
2611305,0.9974365234375,-0.044677734375,-0.038330078125,0.04010009765625,29,32,2108,-3,-2,1,-568,787,-6026,-142,215,-6097,0.07288047671318054,-0.09220048785209656,0.9930223226547241,-0.07689912617206573,0.07294858992099762,-0.09258291870355606
2621331,0.9974365234375,-0.04486083984375,-0.0384521484375,0.040283203125,28,32,2107,-3,-2,1,-570,790,-6027,-143,215,-6099,0.07309287786483765,-0.09258963167667389,0.9930112957954407,-0.07723698019981384,0.07315859943628311,-0.09297245740890503
2631558,0.99737548828125,-0.04498291015625,-0.03857421875,0.04046630859375,28,35,2106,-3,-2,1,-572,795,-6027,-144,218,-6099,0.07330537587404251,-0.09285161644220352,0.9928839802742004,-0.07759424299001694,0.07337804138660431,-0.09324589371681213
2641558,0.99737548828125,-0.045166015625,-0.0386962890625,0.0406494140625,27,34,2106,-3,-2,1,-575,797,-6027,-145,218,-6100,0.07351751625537872,-0.09324091672897339,0.9928728938102722,-0.07793190330266953,0.07358776032924652,-0.09363561123609543
2651555,0.99737548828125,-0.0452880859375,-0.038818359375,0.04083251953125,29,34,2105,-3,-2,1,-575,800,-6028,-144,219,-6102,0.07373450696468353,-0.09350855648517609,0.9928673505783081,-0.07827502489089966,0.07380273193120956,-0.0939033254981041
2661557,0.997314453125,-0.04547119140625,-0.03900146484375,0.04095458984375,26,33,2103,-3,-2,1,-580,802,-6029,-147,218,-6103,0.07406894117593765,-0.09389273077249527,0.9927246570587158,-0.07849925756454468,0.07414410263299942,-0.09430031478404999
2671558,0.997314453125,-0.045654296875,-0.0390625,0.0411376953125,26,33,2103,-3,-2,1,-581,805,-6029,-148,219,-6104,0.07415896654129028,-0.0942772626876831,0.9927182197570801,-0.07884213328361511,0.07423166930675507,-0.09468483179807663
2681139,0.997314453125,-0.0457763671875,-0.0391845703125,0.04132080078125,28,32,2103,-3,-2,1,-581,806,-6029,-146,218,-6104,0.07437564432621002,-0.0945451408624649,0.992712676525116,-0.07918499410152435,0.07444629073143005,-0.0949527770280838
2691165,0.99725341796875,-0.04595947265625,-0.039306640625,0.04150390625,27,31,2105,-3,-2,1,-583,808,-6026,-147,218,-6101,0.07458236813545227,-0.09492924064397812,0.9925796985626221,-0.07953639328479767,0.07465959340333939,-0.09534890204668045
2701192,0.99725341796875,-0.046142578125,-0.0394287109375,0.04168701171875,29,31,2106,-3,-2,1,-583,811,-6025,-146,219,-6101,0.074793741106987,-0.09531901776790619,0.9925684928894043,-0.07987338304519653,0.07486845552921295,-0.09573909640312195
2711219,0.99725341796875,-0.0462646484375,-0.03961181640625,0.04180908203125,29,32,2107,-3,-2,1,-586,815,-6023,-147,221,-6100,0.07513747364282608,-0.09558742493391037,0.9925529360771179,-0.0800885409116745,0.07521046698093414,-0.0960085317492485
2721234,0.9971923828125,-0.04644775390625,-0.03973388671875,0.0419921875,31,31,2104,-3,-2,1,-586,817,-6025,-146,221,-6101,0.0753437727689743,-0.0959717184305191,0.9924197793006897,-0.08043976128101349,0.07542338967323303,-0.09640498459339142
2731451,0.9971923828125,-0.04656982421875,-0.03985595703125,0.04217529296875,32,32,2103,-3,-2,1,-586,820,-6026,-145,222,-6103,0.07555992156267166,-0.09624002128839493,0.992414116859436,-0.08078217506408691,0.07563741505146027,-0.0966733768582344
2741451,0.9971923828125,-0.0467529296875,-0.0399169921875,0.04229736328125,30,31,2104,-3,-2,1,-589,822,-6025,-147,222,-6103,0.07565478980541229,-0.0966200977563858,0.9924025535583496,-0.08100263774394989,0.0757301077246666,-0.0970539003610611
2751453,0.99713134765625,-0.04693603515625,-0.04010009765625,0.04248046875,29,30,2103,-3,-2,1,-593,824,-6025,-149,221,-6103,0.07598239928483963,-0.09700972586870193,0.9922645092010498,-0.08134796470403671,0.07606435567140579,-0.09745628386735916
2761035,0.99713134765625,-0.04705810546875,-0.04022216796875,0.04266357421875,30,31,2102,-3,-2,1,-594,827,-6026,-149,222,-6105,0.07619823515415192,-0.09727826714515686,0.9922587871551514,-0.08169011771678925,0.07627802342176437,-0.09772489964962006
2771048,0.99713134765625,-0.0472412109375,-0.04034423828125,0.0428466796875,29,31,2101,-3,-2,1,-596,831,-6027,-150,224,-6106,0.076408751308918,-0.0976686179637909,0.9922473430633545,-0.08202629536390305,0.07648588716983795,-0.09811566770076752
2781076,0.9970703125,-0.04736328125,-0.04046630859375,0.04302978515625,31,32,2101,-3,-2,1,-596,834,-6026,-149,225,-6105,0.07661944627761841,-0.09793155640363693,0.9921199679374695,-0.08238306641578674,0.07670371234416962,-0.09839066118001938
2791099,0.9970703125,-0.04754638671875,-0.04058837890625,0.043212890625,33,34,2100,-3,-2,1,-596,839,-6027,-148,228,-6107,0.0768297016620636,-0.0983220636844635,0.9921084642410278,-0.08271903544664383,0.07691129297018051,-0.09878159314393997
2801110,0.9970703125,-0.04766845703125,-0.04071044921875,0.0433349609375,32,32,2102,-3,-2,1,-599,839,-6025,-149,226,-6106,0.07705093920230865,-0.09858597815036774,0.9920974373817444,-0.08293905854225159,0.07713073492050171,-0.09904611110687256
2811338,0.9970703125,-0.0478515625,-0.04083251953125,0.04351806640625,31,31,2102,-3,-2,1,-601,841,-6025,-150,225,-6106,0.07726097106933594,-0.09897664934396744,0.9920859336853027,-0.08327477425336838,0.07733803242444992,-0.0994371622800827
2821325,0.99700927734375,-0.0479736328125,-0.04095458984375,0.043701171875,32,29,2101,-3,-2,1,-602,841,-6025,-150,224,-6106,0.07747120410203934,-0.09923984110355377,0.9919585585594177,-0.08363140374422073,0.07755543291568756,-0.0997125506401062
2831319,0.99700927734375,-0.04815673828125,-0.04107666015625,0.04388427734375,31,30,2106,-3,-2,1,-605,846,-6020,-152,227,-6102,0.07768097519874573,-0.09963066875934601,0.9919469356536865,-0.08396691083908081,0.07776245474815369,-0.10010379552841187
2841307,0.99700927734375,-0.04827880859375,-0.04119873046875,0.0440673828125,30,30,2104,-3,-2,1,-608,848,-6021,-154,227,-6104,0.07789599150419235,-0.09989988058805466,0.9919412136077881,-0.08430831134319305,0.07797516882419586,-0.1003730520606041
2851297,0.9969482421875,-0.0484619140625,-0.04132080078125,0.04425048828125,30,30,2104,-3,-2,1,-609,851,-6020,-154,227,-6103,0.07810047268867493,-0.10028497129678726,0.9918079376220703,-0.08465881645679474,0.07818636298179626,-0.10077080130577087
2861293,0.9969482421875,-0.048583984375,-0.04144287109375,0.04437255859375,31,31,2106,-3,-2,1,-610,854,-6018,-154,229,-6102,0.07832120358943939,-0.10054928809404373,0.9917967915534973,-0.08487831056118011,0.0784052237868309,-0.10103572905063629
2871296,0.9969482421875,-0.04876708984375,-0.04156494140625,0.0445556640625,29,29,2104,-3,-2,1,-614,855,-6020,-156,227,-6105,0.07853049039840698,-0.10094043612480164,0.9917851090431213,-0.08521336317062378,0.07861168682575226,-0.10142727196216583
2881282,0.99688720703125,-0.0489501953125,-0.04168701171875,0.04473876953125,31,30,2103,-3,-2,1,-613,860,-6020,-154,230,-6105,0.07873455435037613,-0.10132569819688797,0.9916517734527588,-0.08556368201971054,0.07882248610258102,-0.10182531923055649
2891278,0.99688720703125,-0.049072265625,-0.04180908203125,0.044921875,33,28,2105,-3,-2,1,-613,860,-6018,-153,228,-6103,0.07894904166460037,-0.10159531235694885,0.9916459918022156,-0.08590464293956757,0.07903459668159485,-0.10209497809410095
2901269,0.99688720703125,-0.04925537109375,-0.04193115234375,0.04510498046875,33,28,2104,-3,-2,1,-615,863,-6019,-154,229,-6105,0.07915793359279633,-0.10198670625686646,0.9916343092918396,-0.08623933047056198,0.07924060523509979,-0.102486751973629
2911262,0.996826171875,-0.04937744140625,-0.04205322265625,0.0452880859375,32,28,2105,-3,-2,1,-618,865,-6017,-156,229,-6103,0.07936708629131317,-0.10225047171115875,0.991506814956665,-0.08659567683935165,0.07945701479911804,-0.10276307165622711
2920856,0.996826171875,-0.049560546875,-0.04217529296875,0.04547119140625,33,29,2101,-3,-2,1,-618,869,-6021,-154,230,-6108,0.07957571744918823,-0.10264202207326889,0.9914950132369995,-0.08693016320466995,0.07966272532939911,-0.10315502434968948
2930881,0.996826171875,-0.0496826171875,-0.04229736328125,0.04559326171875,34,28,2105,-3,-2,1,-619,871,-6017,-155,231,-6104,0.07979585230350494,-0.10290681570768356,0.991483747959137,-0.08714903146028519,0.07988088577985764,-0.10342041403055191
2940908,0.99676513671875,-0.04986572265625,-0.04241943359375,0.0457763671875,31,31,2104,-3,-2,1,-624,877,-6017,-159,234,-6105,0.07999908179044724,-0.10329244285821915,0.9913502335548401,-0.08749902248382568,0.08009090274572372,-0.10381907969713211
2950930,0.99676513671875,-0.04998779296875,-0.04254150390625,0.04595947265625,29,31,2103,-3,-2,1,-628,879,-6018,-161,234,-6107,0.08021295070648193,-0.10356254875659943,0.9913444519042969,-0.08783943206071854,0.08030231297016144,-0.10408920794725418
2961149,0.99676513671875,-0.0501708984375,-0.04266357421875,0.046142578125,31,31,2104,-3,-2,1,-627,882,-6016,-159,235,-6105,0.0804210975766182,-0.10395441949367523,0.9913325905799866,-0.08817345649003983,0.08050745725631714,-0.10448145866394043
2971147,0.9967041015625,-0.05029296875,-0.04278564453125,0.04632568359375,31,32,2105,-3,-2,1,-629,885,-6014,-160,236,-6104,0.08062954246997833,-0.10421856492757797,0.991205096244812,-0.08852960169315338,0.08072321861982346,-0.10475838929414749
2981147,0.9967041015625,-0.05047607421875,-0.04290771484375,0.04644775390625,33,30,2106,-3,-2,1,-629,886,-6013,-159,235,-6103,0.08084359019994736,-0.10460535436868668,0.9911875128746033,-0.0887417122721672,0.08093472570180893,-0.10514616966247559
2991147,0.99664306640625,-0.05059814453125,-0.04302978515625,0.046630859375,32,31,2106,-3,-2,1,-631,890,-6012,-160,237,-6102,0.08105180412530899,-0.10486961156129837,0.9910600781440735,-0.08909779042005539,0.08115027844905853,-0.10542329400777817
3000736,0.99664306640625,-0.05072021484375,-0.04315185546875,0.04681396484375,32,30,2107,-3,-2,1,-633,891,-6011,-161,237,-6102,0.0812651664018631,-0.10514011979103088,0.9910542964935303,-0.08943779021501541,0.08136110752820969,-0.10569381713867188
3010761,0.99664306640625,-0.0509033203125,-0.04327392578125,0.0469970703125,30,30,2107,-3,-2,1,-637,894,-6011,-164,237,-6103,0.08147270232439041,-0.10553237795829773,0.9910423159599304,-0.08977127075195312,0.08156556636095047,-0.10608647018671036
3020782,0.99658203125,-0.051025390625,-0.04339599609375,0.04718017578125,31,31,2106,-3,-2,1,-638,897,-6011,-164,238,-6103,0.08168056607246399,-0.10579683631658554,0.9909149408340454,-0.09012726694345474,0.0817807987332344,-0.10636388510465622
3030806,0.99658203125,-0.05120849609375,-0.04351806640625,0.04730224609375,31,30,2106,-3,-2,1,-639,899,-6011,-163,238,-6104,0.08189409226179123,-0.10618393868207932,0.9908971190452576,-0.09033885598182678,0.08199170976877213,-0.10675202310085297
3040829,0.99658203125,-0.05133056640625,-0.04364013671875,0.0474853515625,30,29,2107,-3,-2,1,-642,901,-6010,-165,238,-6103,0.0821070522069931,-0.1064547747373581,0.9908912777900696,-0.09067846834659576,0.08220206946134567,-0.10702286660671234
3051037,0.99652099609375,-0.051513671875,-0.04376220703125,0.04766845703125,30,31,2105,-3,-2,1,-644,906,-6011,-166,240,-6105,0.08230876177549362,-0.1068410649895668,0.9907575845718384,-0.0910278707742691,0.08241064846515656,-0.10742262005805969
3061032,0.99652099609375,-0.0516357421875,-0.04388427734375,0.04779052734375,31,30,2105,-3,-2,1,-645,907,-6011,-166,240,-6105,0.08252780884504318,-0.10710670799016953,0.9907459616661072,-0.0912456288933754,0.0826275572180748,-0.10768891125917435
3071021,0.99652099609375,-0.0517578125,-0.04400634765625,0.0479736328125,30,31,2106,-3,-2,1,-647,910,-6010,-167,241,-6105,0.08274047821760178,-0.1073777824640274,0.9907401204109192,-0.09158498048782349,0.08283758908510208,-0.10795997828245163
3081018,0.9964599609375,-0.05194091796875,-0.04412841796875,0.04815673828125,32,31,2106,-3,-2,1,-647,913,-6009,-166,242,-6104,0.08294179290533066,-0.10776425153017044,0.9906063079833984,-0.0919342115521431,0.08304578810930252,-0.10836003720760345
3091020,0.9964599609375,-0.05206298828125,-0.04425048828125,0.04833984375,32,30,2106,-3,-2,1,-649,915,-6008,-167,242,-6104,0.08315424621105194,-0.10803548991680145,0.9906004667282104,-0.09227338433265686,0.08325556665658951,-0.10863126814365387
3101018,0.9964599609375,-0.05224609375,-0.04437255859375,0.0484619140625,32,31,2105,-3,-2,1,-650,919,-6009,-167,244,-6106,0.08336706459522247,-0.10842303931713104,0.9905824065208435,-0.09248421341180801,0.08346564322710037,-0.10901986062526703
3111009,0.99639892578125,-0.0523681640625,-0.04449462890625,0.04864501953125,32,31,2104,-3,-2,1,-652,921,-6009,-167,244,-6106,0.08357390016317368,-0.10868804901838303,0.9904550313949585,-0.09283987432718277,0.0836799293756485,-0.10929815471172333
3120595,0.99639892578125,-0.052490234375,-0.04461669921875,0.048828125,32,32,2106,-3,-2,1,-654,924,-6007,-168,245,-6105,0.08378606289625168,-0.10895952582359314,0.9904491305351257,-0.09317879378795624,0.08388938009738922,-0.10956962406635284
3130620,0.99639892578125,-0.0526123046875,-0.04473876953125,0.04901123046875,32,32,2105,-3,-2,1,-656,926,-6008,-169,245,-6106,0.08399813622236252,-0.10923109203577042,0.9904433488845825,-0.09351760149002075,0.0840987041592598,-0.10984116047620773
3140644,0.996337890625,-0.05279541015625,-0.04486083984375,0.04913330078125,32,30,2108,-3,-2,1,-657,927,-6004,-169,244,-6102,0.08420508354902267,-0.10961245745420456,0.9903034567832947,-0.09374485909938812,0.08431310206651688,-0.1102370098233223
3150673,0.996337890625,-0.05291748046875,-0.04498291015625,0.04931640625,30,30,2109,-3,-2,1,-661,930,-6003,-172,245,-6102,0.0844169557094574,-0.10988417267799377,0.9902975559234619,-0.0940835028886795,0.08452220261096954,-0.11050871014595032
3160893,0.996337890625,-0.0531005859375,-0.04510498046875,0.04949951171875,30,31,2107,-3,-2,1,-663,934,-6005,-173,246,-6105,0.08462269604206085,-0.11027760058641434,0.9902852773666382,-0.0944153219461441,0.08472456783056259,-0.11090250313282013
3170893,0.99627685546875,-0.05322265625,-0.04522705078125,0.0496826171875,30,30,2106,-3,-2,1,-664,935,-6005,-173,246,-6105,0.08482884615659714,-0.11054299771785736,0.9901577830314636,-0.09477078169584274,0.08493822813034058,-0.11118140816688538
3180890,0.99627685546875,-0.0533447265625,-0.04534912109375,0.04986572265625,30,31,2108,-3,-2,1,-666,938,-6003,-174,247,-6104,0.08504041284322739,-0.11081496626138687,0.9901520013809204,-0.09510916471481323,0.08514697104692459,-0.1114533320069313
3190891,0.99627685546875,-0.05352783203125,-0.04541015625,0.04998779296875,31,31,2107,-3,-2,1,-666,941,-6004,-173,248,-6106,0.08513069897890091,-0.11119698733091354,0.9901390671730042,-0.0953255370259285,0.08523440361022949,-0.11183581501245499
3200891,0.9962158203125,-0.05364990234375,-0.04559326171875,0.0501708984375,32,30,2107,-3,-2,1,-668,943,-6003,-173,248,-6105,0.08545812964439392,-0.11146867275238037,0.9900059700012207,-0.09567438066005707,0.0855693444609642,-0.11212173104286194
3210480,0.9962158203125,-0.0538330078125,-0.045654296875,0.05035400390625,32,28,2105,-3,-2,1,-668,944,-6005,-173,246,-6107,0.08554165065288544,-0.11185634136199951,0.9899991750717163,-0.09601221978664398,0.08564942330121994,-0.11250915378332138
3220503,0.99615478515625,-0.053955078125,-0.0457763671875,0.050537109375,31,29,2104,-3,-2,1,-671,947,-6005,-174,247,-6107,0.08574722707271576,-0.11212202906608582,0.9898717403411865,-0.09636754542589188,0.08586255460977554,-0.11278852820396423
3230529,0.99615478515625,-0.05413818359375,-0.0458984375,0.0506591796875,31,29,2105,-3,-2,1,-673,950,-6003,-175,248,-6106,0.08595870435237885,-0.11251037567853928,0.9898530840873718,-0.096576988697052,0.08607110381126404,-0.11317797750234604
3240558,0.99615478515625,-0.05426025390625,-0.0460205078125,0.05084228515625,31,29,2102,-3,-2,1,-674,952,-6006,-175,248,-6110,0.08616966754198074,-0.1127827987074852,0.9898472428321838,-0.09691482037305832,0.08627913892269135,-0.11345034092664719
3250586,0.99609375,-0.05438232421875,-0.046142578125,0.051025390625,32,28,2102,-3,-2,1,-675,954,-6005,-175,248,-6109,0.0863749086856842,-0.11304867267608643,0.9897197484970093,-0.09727003425359726,0.08649195730686188,-0.11373001337051392
3260798,0.99609375,-0.0545654296875,-0.0462646484375,0.05120849609375,31,30,2100,-3,-2,1,-678,959,-6007,-177,251,-6112,0.08657942712306976,-0.11344285309314728,0.9897072911262512,-0.0976007729768753,0.0866929218173027,-0.11412456631660461
3270787,0.99609375,-0.0546875,-0.04638671875,0.0513916015625,30,31,2103,-3,-2,1,-680,962,-6004,-178,252,-6110,0.08679008483886719,-0.1137155294418335,0.9897013902664185,-0.09793832153081894,0.08690060675144196,-0.11439717561006546
3280788,0.99603271484375,-0.0548095703125,-0.0465087890625,0.05157470703125,31,31,2102,-3,-2,1,-681,964,-6004,-178,252,-6110,0.08699497580528259,-0.11398160457611084,0.9895740151405334,-0.09829345345497131,0.08711308985948563,-0.11467713862657547
3290374,0.99603271484375,-0.054931640625,-0.046630859375,0.05169677734375,31,31,2105,-3,-2,1,-683,966,-6001,-179,253,-6108,0.08721214532852173,-0.11424875259399414,0.9895617961883545,-0.09850924462080002,0.08732784539461136,-0.11494496464729309
3300388,0.99603271484375,-0.05511474609375,-0.04669189453125,0.0518798828125,31,30,2103,-3,-2,1,-684,969,-6003,-179,253,-6111,0.08729461580514908,-0.11463692039251328,0.9895548820495605,-0.09884624183177948,0.0874067023396492,-0.11533284932374954
3310415,0.9959716796875,-0.05523681640625,-0.04681396484375,0.05206298828125,32,30,2105,-3,-2,1,-684,971,-6000,-178,254,-6107,0.08749917894601822,-0.11490315943956375,0.9894275069236755,-0.0992012768983841,0.0876188725233078,-0.11561308056116104
3320441,0.9959716796875,-0.05535888671875,-0.04693603515625,0.05224609375,31,30,2108,-3,-2,1,-687,973,-5997,-181,254,-6105,0.08770935237407684,-0.11517621576786041,0.9894216060638428,-0.0995384082198143,0.08782600611448288,-0.11588604748249054
3330454,0.9959716796875,-0.05548095703125,-0.04705810546875,0.05242919921875,31,31,2106,-3,-2,1,-689,976,-5999,-181,255,-6108,0.0879194363951683,-0.11544936150312424,0.9894157648086548,-0.09987544268369675,0.08803301304578781,-0.1161590963602066
3340676,0.99591064453125,-0.0556640625,-0.04718017578125,0.05255126953125,32,32,2106,-3,-2,1,-689,980,-5998,-180,257,-6107,0.08812404423952103,-0.11583162099123001,0.9892752170562744,-0.10010168701410294,0.0882452130317688,-0.11655664443969727
3350675,0.99591064453125,-0.0557861328125,-0.04730224609375,0.052734375,33,31,2106,-3,-2,1,-690,982,-5998,-180,257,-6108,0.08833392709493637,-0.11610491573810577,0.9892693758010864,-0.10043855756521225,0.08845199644565582,-0.11682984977960587
3360674,0.995849609375,-0.055908203125,-0.04742431640625,0.05291748046875,34,30,2108,-3,-2,1,-691,983,-5995,-180,257,-6105,0.08853793144226074,-0.11637147516012192,0.9891419410705566,-0.10079344362020493,0.08866365998983383,-0.11711057275533676
3370675,0.995849609375,-0.0560302734375,-0.0474853515625,0.05303955078125,31,29,2109,-3,-2,1,-695,984,-5993,-184,256,-6104,0.08863289654254913,-0.11663265526294708,0.9891354441642761,-0.10101543366909027,0.08875612914562225,-0.11737177520990372
3380674,0.995849609375,-0.05621337890625,-0.047607421875,0.05322265625,32,30,2109,-3,-2,1,-695,988,-5993,-183,258,-6105,0.08883601427078247,-0.11702772974967957,0.9891226887702942,-0.10134485363960266,0.08895546197891235,-0.11776719987392426
3390259,0.99578857421875,-0.05633544921875,-0.0477294921875,0.05340576171875,32,30,2107,-3,-2,1,-697,990,-5994,-183,258,-6106,0.08903969079256058,-0.11729445308446884,0.9889953136444092,-0.10169963538646698,0.0891668051481247,-0.11804817616939545
3400281,0.99578857421875,-0.05645751953125,-0.04779052734375,0.0535888671875,32,31,2106,-3,-2,1,-698,994,-5995,-184,260,-6108,0.08912753313779831,-0.11756158620119095,0.9889952540397644,-0.10204298049211502,0.08925150334835052,-0.11831453442573547
3410303,0.99578857421875,-0.056640625,-0.04791259765625,0.05377197265625,32,31,2106,-3,-2,1,-699,997,-5995,-184,260,-6108,0.0893302783370018,-0.11795688420534134,0.9889825582504272,-0.10237208008766174,0.089450404047966,-0.11871016025543213
3420328,0.9957275390625,-0.0567626953125,-0.04803466796875,0.05389404296875,31,31,2108,-3,-2,1,-702,999,-5992,-186,261,-6106,0.08954054117202759,-0.11821792274713516,0.9888485670089722,-0.10260523110628128,0.08966896682977676,-0.11898636817932129
3430355,0.9957275390625,-0.056884765625,-0.04815673828125,0.0540771484375,31,30,2108,-3,-2,1,-704,1000,-5992,-187,260,-6106,0.08974964916706085,-0.11849181354045868,0.9888426661491394,-0.10294142365455627,0.08987485617399216,-0.11926013976335526
3440568,0.9957275390625,-0.0570068359375,-0.04827880859375,0.05426025390625,28,30,2109,-3,-2,1,-708,1002,-5991,-190,260,-6106,0.08995866775512695,-0.11876579374074936,0.9888368844985962,-0.10327751189470291,0.0900806188583374,-0.119533970952034
3450557,0.99566650390625,-0.05718994140625,-0.04833984375,0.054443359375,28,30,2112,-3,-2,1,-709,1006,-5987,-191,262,-6103,0.09003350138664246,-0.11914778500795364,0.9887084364891052,-0.10363173484802246,0.09016251564025879,-0.1199301928281784
3460557,0.99566650390625,-0.05731201171875,-0.0484619140625,0.05462646484375,27,29,2110,-3,-2,1,-712,1007,-5989,-192,261,-6105,0.09024230390787125,-0.11942190676927567,0.9887025952339172,-0.10396765172481537,0.09036803990602493,-0.12020417302846909
3470557,0.99560546875,-0.05743408203125,-0.048583984375,0.0548095703125,29,30,2109,-3,-2,1,-711,1010,-5989,-190,262,-6105,0.09044508635997772,-0.11968910694122314,0.9885752201080322,-0.10432221740484238,0.09057854115962982,-0.12048590183258057
3480139,0.99560546875,-0.05755615234375,-0.0487060546875,0.054931640625,27,29,2109,-3,-2,1,-715,1011,-5989,-193,261,-6106,0.09066072106361389,-0.11995744705200195,0.9885627627372742,-0.10453645139932632,0.0907915011048317,-0.1207549199461937
3490165,0.99560546875,-0.0577392578125,-0.04876708984375,0.05511474609375,27,32,2111,-3,-2,1,-716,1017,-5987,-194,265,-6105,0.09074099361896515,-0.12034661322832108,0.9885558485984802,-0.1048717200756073,0.09086780995130539,-0.12114369124174118
3500192,0.99554443359375,-0.057861328125,-0.04888916015625,0.0552978515625,28,31,2109,-3,-2,1,-717,1019,-5988,-194,265,-6106,0.09094344824552536,-0.12061397731304169,0.9884284734725952,-0.10522618144750595,0.09107799828052521,-0.12142568826675415
3510214,0.99554443359375,-0.0579833984375,-0.04901123046875,0.05548095703125,29,30,2107,-3,-2,1,-717,1020,-5990,-192,264,-6109,0.09115176647901535,-0.12088847905397415,0.988422691822052,-0.10556168109178543,0.09128294885158539,-0.12170001864433289
3520247,0.99554443359375,-0.05810546875,-0.04913330078125,0.05560302734375,29,30,2104,-3,-2,1,-719,1022,-5993,-193,264,-6113,0.09136708825826645,-0.12115707248449326,0.9884100556373596,-0.10577556490898132,0.09149554371833801,-0.1219692975282669
3530455,0.9954833984375,-0.05828857421875,-0.0491943359375,0.0557861328125,29,31,2102,-3,-2,1,-720,1026,-5994,-193,265,-6114,0.09144090116024017,-0.12153933942317963,0.9882816076278687,-0.10612951219081879,0.09157644212245941,-0.1223660483956337
3540451,0.9954833984375,-0.05841064453125,-0.04931640625,0.05596923828125,28,31,2103,-3,-2,1,-722,1028,-5992,-195,266,-6113,0.09164892882108688,-0.1218140572309494,0.9882758259773254,-0.10646475106477737,0.09178106486797333,-0.12264057993888855
3550452,0.99542236328125,-0.05853271484375,-0.0494384765625,0.05609130859375,29,30,2106,-3,-2,1,-723,1030,-5988,-195,266,-6109,0.09185797721147537,-0.12207568436861038,0.9881417155265808,-0.10669755190610886,0.09199851751327515,-0.12291785329580307
3560035,0.99542236328125,-0.05865478515625,-0.049560546875,0.0562744140625,29,31,2108,-3,-2,1,-725,1033,-5986,-196,268,-6108,0.09206582605838776,-0.1223505511879921,0.9881358742713928,-0.10703263431787491,0.09220293164253235,-0.12319254875183105
3570048,0.99542236328125,-0.05877685546875,-0.04962158203125,0.05645751953125,31,31,2108,-3,-2,1,-723,1035,-5986,-194,268,-6108,0.09215207397937775,-0.12261861562728882,0.9881361126899719,-0.10737477988004684,0.09228575974702835,-0.12345969676971436
3580077,0.995361328125,-0.0589599609375,-0.04974365234375,0.056640625,32,31,2110,-3,-2,1,-724,1038,-5983,-194,269,-6105,0.09234675765037537,-0.12300795316696167,0.9880016446113586,-0.10772141069173813,0.09248751401901245,-0.12386440485715866
3590104,0.995361328125,-0.05908203125,-0.04986572265625,0.05682373046875,32,30,2110,-3,-2,1,-726,1039,-5983,-194,268,-6106,0.09255430102348328,-0.12328305095434189,0.9879958629608154,-0.1080562099814415,0.0926915630698204,-0.12413929402828217
3600110,0.995361328125,-0.0592041015625,-0.04998779296875,0.05694580078125,30,27,2111,-3,-2,1,-729,1039,-5982,-196,267,-6106,0.09276898205280304,-0.12355213612318039,0.9879831075668335,-0.10826942324638367,0.09290340542793274,-0.12440905719995499
3610338,0.99530029296875,-0.059326171875,-0.050048828125,0.05712890625,29,30,2109,-3,-2,1,-731,1044,-5983,-198,269,-6107,0.0928487479686737,-0.12381318211555481,0.9878619313240051,-0.10863077640533447,0.09299097955226898,-0.12468433380126953
3620333,0.99530029296875,-0.0594482421875,-0.0501708984375,0.05731201171875,29,31,2106,-3,-2,1,-733,1047,-5986,-199,270,-6111,0.09305602312088013,-0.12408849596977234,0.9878562092781067,-0.10896533727645874,0.09319471567869186,-0.12495943158864975
3630333,0.9952392578125,-0.05963134765625,-0.05029296875,0.0574951171875,29,29,2109,-3,-2,1,-734,1048,-5982,-199,269,-6107,0.09325005114078522,-0.12447811663150787,0.9877215623855591,-0.10931169986724854,0.09339583665132523,-0.12536460161209106
3640333,0.9952392578125,-0.05975341796875,-0.05035400390625,0.05767822265625,27,30,2107,-3,-2,1,-737,1051,-5984,-201,270,-6110,0.09333562105894089,-0.12474655359983444,0.9877219200134277,-0.10965336859226227,0.09347786754369736,-0.12563206255435944
3650333,0.9952392578125,-0.05987548828125,-0.05047607421875,0.057861328125,30,30,2106,-3,-2,1,-736,1054,-5985,-199,271,-6112,0.09354259073734283,-0.12502209842205048,0.9877161383628845,-0.10998764634132385,0.09368123859167099,-0.12590737640857697
3659921,0.99517822265625,-0.05999755859375,-0.05059814453125,0.0579833984375,30,28,2106,-3,-2,1,-738,1054,-5984,-200,270,-6110,0.09375061839818954,-0.12528422474861145,0.9875818490982056,-0.11022017151117325,0.0938977599143982,-0.1261855512857437
3669945,0.99517822265625,-0.06011962890625,-0.0506591796875,0.05816650390625,32,28,2107,-3,-2,1,-736,1056,-5983,-197,270,-6110,0.09383592754602432,-0.12555283308029175,0.9875823259353638,-0.11056163161993027,0.09397948533296585,-0.12645316123962402
3679969,0.99517822265625,-0.06024169921875,-0.05078125,0.058349609375,31,29,2108,-3,-2,1,-739,1059,-5982,-199,271,-6110,0.09404262900352478,-0.1258285939693451,0.9875765442848206,-0.11089565604925156,0.09418254345655441,-0.12672866880893707
3689995,0.9951171875,-0.06036376953125,-0.0509033203125,0.05853271484375,31,27,2108,-3,-2,1,-741,1059,-5981,-200,270,-6109,0.09424302726984024,-0.12609706819057465,0.9874493479728699,-0.11124956607818604,0.09439074248075485,-0.12701234221458435
3700011,0.9951171875,-0.06048583984375,-0.051025390625,0.0587158203125,29,29,2109,-3,-2,1,-744,1064,-5980,-202,273,-6109,0.09444953501224518,-0.12637299299240112,0.9874436259269714,-0.11158343404531479,0.0945935770869255,-0.12728802859783173
3710227,0.99505615234375,-0.06060791015625,-0.05108642578125,0.05889892578125,30,30,2109,-3,-2,1,-744,1067,-5979,-202,274,-6108,0.09452824294567108,-0.126634418964386,0.9873226881027222,-0.11194469779729843,0.09468013793230057,-0.1275639533996582
3720215,0.99505615234375,-0.060791015625,-0.05120849609375,0.05902099609375,29,30,2109,-3,-2,1,-747,1070,-5978,-204,275,-6108,0.09473476558923721,-0.12702569365501404,0.9873023629188538,-0.11214905232191086,0.09488293528556824,-0.12795642018318176
3730201,0.99505615234375,-0.0609130859375,-0.05126953125,0.0592041015625,29,29,2109,-3,-2,1,-747,1071,-5978,-204,274,-6109,0.09481951594352722,-0.1272946149110794,0.9873028993606567,-0.11249008774757385,0.09496400505304337,-0.12822428345680237
3740202,0.9949951171875,-0.06103515625,-0.0513916015625,0.059326171875,30,30,2108,-3,-2,1,-748,1074,-5978,-204,275,-6109,0.09502682089805603,-0.12755709886550903,0.9871684908866882,-0.11272241175174713,0.09517984837293625,-0.12850309908390045
3750203,0.9949951171875,-0.0611572265625,-0.051513671875,0.05950927734375,30,29,2108,-3,-2,1,-750,1076,-5978,-204,275,-6110,0.09523285925388336,-0.12783336639404297,0.9871627688407898,-0.11305586993694305,0.09538213163614273,-0.1287790983915329
3759789,0.9949951171875,-0.061279296875,-0.05157470703125,0.0596923828125,30,30,2105,-3,-2,1,-750,1079,-5981,-204,276,-6113,0.09531734883785248,-0.12810243666172028,0.9871633052825928,-0.11339668184518814,0.09546289592981339,-0.12904708087444305
3769814,0.99493408203125,-0.0614013671875,-0.05169677734375,0.05987548828125,30,29,2106,-3,-2,1,-752,1080,-5979,-205,276,-6111,0.09551689773797989,-0.12837135791778564,0.9870362877845764,-0.11375036090612411,0.09567025303840637,-0.12933142483234406
3779831,0.99493408203125,-0.0615234375,-0.0517578125,0.06005859375,30,29,2108,-3,-2,1,-753,1082,-5977,-206,276,-6110,0.09560120105743408,-0.1286405324935913,0.9870368838310242,-0.11409105360507965,0.09575079381465912,-0.12959951162338257
3789845,0.994873046875,-0.0616455078125,-0.0518798828125,0.06024169921875,28,29,2107,-3,-2,1,-756,1085,-5977,-208,277,-6111,0.09580053389072418,-0.12890957295894623,0.986909806728363,-0.11444471776485443,0.09595795720815659,-0.12988406419754028
3799867,0.994873046875,-0.061767578125,-0.052001953125,0.06036376953125,30,31,2104,-3,-2,1,-756,1089,-5980,-206,279,-6114,0.0960136353969574,-0.12917986512184143,0.9868967533111572,-0.11465634405612946,0.09616798162460327,-0.1301550418138504
3810085,0.994873046875,-0.0618896484375,-0.05206298828125,0.060546875,30,30,2105,-3,-2,1,-757,1090,-5979,-207,278,-6114,0.0960976779460907,-0.12944918870925903,0.9868974089622498,-0.11499683558940887,0.09624820947647095,-0.13042324781417847
3820080,0.99481201171875,-0.06201171875,-0.05218505859375,0.06072998046875,28,31,2105,-3,-2,1,-760,1093,-5978,-209,280,-6113,0.09629670530557632,-0.12971839308738708,0.9867703914642334,-0.1153503879904747,0.09645506739616394,-0.13070803880691528
3830073,0.99481201171875,-0.0621337890625,-0.05230712890625,0.0609130859375,27,30,2107,-3,-2,1,-763,1094,-5976,-211,279,-6112,0.09650199860334396,-0.12999525666236877,0.9867647290229797,-0.1156831756234169,0.09665647894144058,-0.1309845745563507
3840071,0.9947509765625,-0.062255859375,-0.05242919921875,0.06109619140625,28,30,2108,-3,-2,1,-764,1097,-5974,-211,280,-6110,0.09670080244541168,-0.13026461005210876,0.9866375923156738,-0.11603669822216034,0.09686314314603806,-0.13126960396766663
3850072,0.9947509765625,-0.0623779296875,-0.052490234375,0.061279296875,28,29,2109,-3,-2,1,-764,1098,-5973,-211,280,-6110,0.09678447246551514,-0.13053414225578308,0.9866384267807007,-0.11637692898511887,0.09694293886423111,-0.13153797388076782
3860060,0.9947509765625,-0.0625,-0.0526123046875,0.06146240234375,28,28,2107,-3,-2,1,-766,1099,-5975,-211,279,-6113,0.09698948264122009,-0.13081122934818268,0.9866328239440918,-0.11670944094657898,0.0971440002322197,-0.13181471824645996
3869647,0.99468994140625,-0.0626220703125,-0.052734375,0.06158447265625,31,29,2106,-3,-2,1,-765,1102,-5975,-209,280,-6113,0.09719561040401459,-0.13107432425022125,0.9864982962608337,-0.11694148182868958,0.09735875576734543,-0.13209456205368042
3879671,0.99468994140625,-0.062744140625,-0.05279541015625,0.061767578125,31,30,2105,-3,-2,1,-765,1105,-5976,-209,281,-6114,0.09727901965379715,-0.1313440203666687,0.9864991307258606,-0.11728149652481079,0.09743823856115341,-0.13236309587955475
3889700,0.99468994140625,-0.0628662109375,-0.05291748046875,0.06195068359375,30,29,2107,-3,-2,1,-768,1107,-5974,-211,282,-6113,0.09748376160860062,-0.1316213309764862,0.9864935278892517,-0.1176137626171112,0.09763897955417633,-0.1326400488615036
3899723,0.99462890625,-0.06298828125,-0.05303955078125,0.06207275390625,30,29,2108,-3,-2,1,-770,1109,-5972,-212,282,-6112,0.09768962860107422,-0.13188454508781433,0.9863589406013489,-0.11784572154283524,0.09785349667072296,-0.13292010128498077
3909750,0.99462890625,-0.06317138671875,-0.0531005859375,0.062255859375,31,30,2105,-3,-2,1,-769,1113,-5975,-210,283,-6115,0.09776517748832703,-0.13227581977844238,0.9863521456718445,-0.11817721277475357,0.09792427718639374,-0.1333107054233551
3919966,0.99456787109375,-0.06329345703125,-0.05322265625,0.06243896484375,30,29,2108,-3,-2,1,-772,1114,-5971,-213,283,-6112,0.0979631319642067,-0.1325456202030182,0.9862251281738281,-0.11853048205375671,0.09813009202480316,-0.13359640538692474
3929964,0.99456787109375,-0.06341552734375,-0.05328369140625,0.0626220703125,30,31,2108,-3,-2,1,-773,1119,-5971,-214,286,-6113,0.09804607182741165,-0.13281555473804474,0.9862260818481445,-0.11887016147375107,0.09820902347564697,-0.1338651031255722
3939958,0.99456787109375,-0.06353759765625,-0.05340576171875,0.062744140625,31,31,2108,-3,-2,1,-773,1121,-5971,-212,286,-6113,0.09825808554887772,-0.13308671116828918,0.9862128496170044,-0.11908064782619476,0.0984177440404892,-0.13413693010807037
3949956,0.9945068359375,-0.06365966796875,-0.05352783203125,0.06292724609375,30,32,2108,-3,-2,1,-776,1124,-5970,-214,287,-6113,0.09845573455095291,-0.13335666060447693,0.986085832118988,-0.11943380534648895,0.09862328320741653,-0.13442285358905792
3959542,0.9945068359375,-0.06378173828125,-0.05364990234375,0.0631103515625,31,31,2106,-3,-2,1,-777,1125,-5971,-214,286,-6114,0.09865981340408325,-0.13363447785377502,0.9860802888870239,-0.11976547539234161,0.09882323443889618,-0.1347002536058426
3969559,0.99444580078125,-0.06390380859375,-0.0537109375,0.06329345703125,32,31,2108,-3,-2,1,-776,1127,-5968,-213,287,-6111,0.09873584657907486,-0.1338968575000763,0.9859600067138672,-0.1201263889670372,0.09890718013048172,-0.1349778026342392
3979585,0.99444580078125,-0.06402587890625,-0.0538330078125,0.0634765625,32,32,2109,-3,-2,1,-778,1131,-5967,-214,289,-6111,0.09893973171710968,-0.13417479395866394,0.9859544634819031,-0.12045791000127792,0.09910693019628525,-0.13525532186031342
3989608,0.99444580078125,-0.06414794921875,-0.053955078125,0.06365966796875,31,30,2109,-3,-2,1,-781,1131,-5967,-216,287,-6112,0.09914352744817734,-0.13445284962654114,0.985948920249939,-0.1207893118262291,0.09930656105279922,-0.13553296029567719
3999634,0.994384765625,-0.06427001953125,-0.05401611328125,0.0638427734375,30,30,2111,-3,-2,1,-782,1133,-5964,-217,288,-6109,0.09921924769878387,-0.13471533358097076,0.9858285188674927,-0.1211501806974411,0.09939022362232208,-0.13581068813800812
4009840,0.994384765625,-0.06439208984375,-0.05413818359375,0.06396484375,29,30,2110,-3,-2,1,-785,1135,-5965,-219,288,-6111,0.09943071007728577,-0.13498690724372864,0.9858152866363525,-0.12136011570692062,0.09959829598665237,-0.13608291745185852
4019840,0.99432373046875,-0.06451416015625,-0.05419921875,0.06414794921875,31,31,2109,-3,-2,1,-784,1138,-5965,-217,289,-6111,0.09950623661279678,-0.13524946570396423,0.9856950640678406,-0.12172095477581024,0.09968174993991852,-0.136360764503479
4029846,0.99432373046875,-0.06463623046875,-0.0543212890625,0.0643310546875,31,32,2107,-3,-2,1,-785,1142,-5967,-217,291,-6114,0.0997096598148346,-0.13552775979042053,0.9856895208358765,-0.12205205857753754,0.09988095611333847,-0.13663862645626068
4039840,0.99432373046875,-0.06475830078125,-0.054443359375,0.06451416015625,29,32,2107,-3,-2,1,-789,1144,-5967,-220,291,-6115,0.09991299360990524,-0.13580617308616638,0.9856840372085571,-0.12238304316997528,0.10008002817630768,-0.13691659271717072
4049423,0.9942626953125,-0.06488037109375,-0.05450439453125,0.06463623046875,29,30,2107,-3,-2,1,-790,1144,-5966,-220,289,-6114,0.09999612718820572,-0.13606217503547668,0.9855559468269348,-0.12262255698442459,0.10017193853855133,-0.13718906044960022
4059442,0.9942626953125,-0.06500244140625,-0.05462646484375,0.0648193359375,31,32,2107,-3,-2,1,-789,1148,-5966,-219,292,-6115,0.10019928216934204,-0.13634070754051208,0.9855504631996155,-0.1229533925652504,0.10037080943584442,-0.1374671459197998
4069468,0.99420166015625,-0.06512451171875,-0.0546875,0.06500244140625,29,32,2102,-3,-2,1,-792,1151,-5970,-221,292,-6119,0.10027430206537247,-0.136603444814682,0.9854303002357483,-0.12331417202949524,0.10045377910137177,-0.13774530589580536
4079486,0.99420166015625,-0.065185546875,-0.0548095703125,0.065185546875,31,31,2104,-3,-2,1,-792,1151,-5968,-220,292,-6118,0.10048522055149078,-0.13676074147224426,0.9854328632354736,-0.12365352362394333,0.10066122561693192,-0.13790154457092285
4089503,0.99420166015625,-0.0653076171875,-0.054931640625,0.0653076171875,31,32,2103,-3,-2,1,-793,1154,-5969,-220,293,-6119,0.10069608688354492,-0.13703279197216034,0.9854194521903992,-0.12386283278465271,0.1008685976266861,-0.13817425072193146
4099719,0.994140625,-0.0654296875,-0.05499267578125,0.06549072265625,30,33,2105,-3,-2,1,-795,1157,-5966,-222,294,-6117,0.10077083110809326,-0.13729563355445862,0.9852993488311768,-0.12422358244657516,0.10095129907131195,-0.13845257461071014
4109717,0.994140625,-0.0655517578125,-0.05511474609375,0.065673828125,29,31,2104,-3,-2,1,-798,1158,-5967,-223,293,-6119,0.10097354650497437,-0.13757452368736267,0.985293984413147,-0.12455401569604874,0.10114964842796326,-0.1387309581041336
4119712,0.99407958984375,-0.065673828125,-0.05517578125,0.06585693359375,29,31,2104,-3,-2,1,-798,1160,-5966,-223,293,-6118,0.10104808211326599,-0.13783743977546692,0.9851739406585693,-0.12491476535797119,0.1012321412563324,-0.13900941610336304
4129711,0.99407958984375,-0.0657958984375,-0.0552978515625,0.0660400390625,30,31,2103,-3,-2,1,-799,1162,-5967,-223,294,-6119,0.10125060379505157,-0.13811646401882172,0.9851685762405396,-0.12524503469467163,0.1014302596449852,-0.13928794860839844
4139706,0.99407958984375,-0.06591796875,-0.05535888671875,0.06622314453125,29,31,2103,-3,-2,1,-801,1164,-5967,-224,294,-6120,0.1013316884636879,-0.1383875012397766,0.9851699471473694,-0.1255832463502884,0.10150697827339172,-0.13955754041671753
4149698,0.9940185546875,-0.0660400390625,-0.05548095703125,0.06634521484375,29,31,2107,-3,-2,1,-802,1166,-5962,-225,294,-6115,0.10153532028198242,-0.13865184783935547,0.9850351214408875,-0.12581464648246765,0.10171937942504883,-0.1398395597934723
4159696,0.9940185546875,-0.066162109375,-0.0555419921875,0.0665283203125,30,31,2106,-3,-2,1,-802,1169,-5963,-225,296,-6117,0.10161623358726501,-0.13892295956611633,0.9850365519523621,-0.12615272402763367,0.10179588943719864,-0.14010924100875854
4169684,0.99395751953125,-0.0662841796875,-0.0556640625,0.06671142578125,29,31,2106,-3,-2,1,-805,1171,-5962,-226,296,-6116,0.10181160271167755,-0.13919417560100555,0.9849099516868591,-0.1265053004026413,0.10199915617704391,-0.14039699733257294
4179268,0.99395751953125,-0.06634521484375,-0.0557861328125,0.06683349609375,30,30,2108,-3,-2,1,-805,1171,-5960,-225,295,-6115,0.10202992707490921,-0.1393454223871231,0.9849045276641846,-0.1267227977514267,0.1022147461771965,-0.14054831862449646
4189286,0.99395751953125,-0.06646728515625,-0.05584716796875,0.0670166015625,29,30,2109,-3,-2,1,-807,1173,-5959,-227,295,-6115,0.1021106019616127,-0.1396166831254959,0.9849059581756592,-0.1270606517791748,0.10229098051786423,-0.14081811904907227
4199308,0.993896484375,-0.06658935546875,-0.05596923828125,0.06719970703125,30,28,2106,-3,-2,1,-808,1173,-5961,-226,293,-6117,0.10230568796396255,-0.13988807797431946,0.9847792983055115,-0.12741316854953766,0.10249397158622742,-0.14110614359378815
4209334,0.993896484375,-0.06671142578125,-0.0560302734375,0.0673828125,30,29,2105,-3,-2,1,-808,1177,-5962,-226,295,-6118,0.10238617658615112,-0.1401594579219818,0.9847808480262756,-0.1277509182691574,0.10256998240947723,-0.14137603342533112
4219367,0.99383544921875,-0.06683349609375,-0.05615234375,0.06756591796875,30,28,2107,-3,-2,1,-810,1178,-5959,-227,295,-6116,0.10258104652166367,-0.14043095707893372,0.9846543073654175,-0.12810340523719788,0.10277274996042252,-0.14166420698165894
4229579,0.99383544921875,-0.06695556640625,-0.0562744140625,0.0677490234375,30,30,2106,-3,-2,1,-811,1182,-5960,-227,297,-6118,0.10278266668319702,-0.140710711479187,0.9846490025520325,-0.12843285501003265,0.10296979546546936,-0.14194339513778687
4239568,0.99383544921875,-0.06707763671875,-0.05633544921875,0.06787109375,31,31,2104,-3,-2,1,-811,1185,-5962,-227,298,-6120,0.10287106782197952,-0.14097535610198975,0.9846422672271729,-0.12864914536476135,0.10305457562208176,-0.14220774173736572
4249557,0.9937744140625,-0.06719970703125,-0.056396484375,0.06805419921875,31,29,2106,-3,-2,1,-812,1186,-5959,-228,298,-6117,0.10294432193040848,-0.141238734126091,0.9845225811004639,-0.12900972366333008,0.10313578695058823,-0.14248692989349365
4259557,0.9937744140625,-0.06732177734375,-0.0565185546875,0.0682373046875,32,30,2104,-3,-2,1,-812,1189,-5961,-227,299,-6120,0.10314567387104034,-0.14151866734027863,0.9845173358917236,-0.12933892011642456,0.1033325046300888,-0.14276628196239471
4269557,0.99371337890625,-0.06744384765625,-0.056640625,0.06842041015625,33,30,2105,-3,-2,1,-813,1191,-5959,-227,299,-6118,0.1033400222659111,-0.1417904496192932,0.9843907952308655,-0.1296912431716919,0.1035347655415535,-0.14305487275123596
4279139,0.99371337890625,-0.06756591796875,-0.05670166015625,0.068603515625,34,31,2106,-3,-2,1,-813,1194,-5958,-227,301,-6118,0.10341987758874893,-0.14206218719482422,0.9843924641609192,-0.13002848625183105,0.10361002385616302,-0.1433250606060028
4289165,0.99371337890625,-0.06768798828125,-0.05682373046875,0.06878662109375,33,30,2106,-3,-2,1,-815,1196,-5958,-227,301,-6119,0.10362094640731812,-0.14234232902526855,0.984387218952179,-0.13035738468170166,0.10380640625953674,-0.1436045616865158
4299192,0.99365234375,-0.0677490234375,-0.056884765625,0.06890869140625,31,28,2107,-3,-2,1,-818,1195,-5956,-230,299,-6117,0.1037103682756424,-0.14247766137123108,0.9842675924301147,-0.13060583174228668,0.10390561819076538,-0.1437564641237259
4309215,0.99365234375,-0.06787109375,-0.0570068359375,0.069091796875,32,28,2106,-3,-2,1,-819,1197,-5957,-230,299,-6119,0.10391128063201904,-0.14275795221328735,0.9842624068260193,-0.13093461096286774,0.10410181432962418,-0.14403612911701202
4319234,0.99359130859375,-0.0679931640625,-0.05706787109375,0.06927490234375,30,30,2104,-3,-2,1,-821,1201,-5958,-231,300,-6120,0.10398384183645248,-0.1430215835571289,0.9841428995132446,-0.1312950998544693,0.10418234765529633,-0.1443157196044922
4329451,0.99359130859375,-0.068115234375,-0.05718994140625,0.0694580078125,29,31,2104,-3,-2,1,-824,1204,-5958,-233,301,-6121,0.10418456047773361,-0.14330200850963593,0.9841377139091492,-0.13162371516227722,0.10437832027673721,-0.14459551870822906
4339451,0.99359130859375,-0.0682373046875,-0.0572509765625,0.06964111328125,28,30,2106,-3,-2,1,-826,1206,-5956,-235,302,-6120,0.10426390171051025,-0.14357402920722961,0.984139621257782,-0.13196054100990295,0.104452945291996,-0.14486590027809143
4349450,0.9935302734375,-0.068359375,-0.057373046875,0.06976318359375,28,29,2104,-3,-2,1,-827,1207,-5956,-235,301,-6120,0.1044657826423645,-0.1438392698764801,0.9840046167373657,-0.1321914941072464,0.1046636700630188,-0.14514942467212677
4359035,0.9935302734375,-0.06842041015625,-0.05743408203125,0.0699462890625,30,32,2105,-3,-2,1,-826,1211,-5956,-234,304,-6121,0.10455349087715149,-0.14399009943008423,0.9840148091316223,-0.13253740966320038,0.10474756360054016,-0.14529800415039062
4369048,0.99346923828125,-0.06854248046875,-0.05755615234375,0.07012939453125,31,33,2105,-3,-2,1,-827,1214,-5955,-234,305,-6120,0.10474684834480286,-0.14426246285438538,0.9838885068893433,-0.13288947939872742,0.10494881868362427,-0.14558739960193634
4379076,0.99346923828125,-0.06866455078125,-0.0576171875,0.0703125,31,34,2104,-3,-2,1,-827,1218,-5956,-234,308,-6122,0.10482585430145264,-0.1445346474647522,0.9838904142379761,-0.13322603702545166,0.10502305626869202,-0.14585793018341064
4389101,0.99346923828125,-0.06878662109375,-0.0577392578125,0.0704345703125,32,32,2107,-3,-2,1,-828,1218,-5952,-234,306,-6119,0.10503444075584412,-0.14480847120285034,0.9838767647743225,-0.133432999253273,0.10522772371768951,-0.14613234996795654
4399130,0.993408203125,-0.06884765625,-0.05780029296875,0.07061767578125,32,33,2108,-3,-2,1,-829,1220,-5951,-235,307,-6118,0.10511484742164612,-0.14495110511779785,0.9837658405303955,-0.13380269706249237,0.10531704127788544,-0.14629051089286804
4409346,0.993408203125,-0.0689697265625,-0.05792236328125,0.07080078125,32,31,2107,-3,-2,1,-830,1220,-5951,-234,306,-6118,0.10531488060951233,-0.14523208141326904,0.9837607741355896,-0.13413065671920776,0.10551218688488007,-0.14657077193260193
4419346,0.99334716796875,-0.069091796875,-0.0579833984375,0.07098388671875,32,31,2106,-3,-2,1,-831,1222,-5951,-235,306,-6119,0.10538648068904877,-0.14549605548381805,0.9836416244506836,-0.13449104130268097,0.10559174418449402,-0.14685091376304626
4429346,0.99334716796875,-0.0692138671875,-0.05810546875,0.07110595703125,33,30,2106,-3,-2,1,-832,1224,-5951,-235,306,-6119,0.10559476912021637,-0.1457700878381729,0.9836279153823853,-0.13469773530960083,0.10579608380794525,-0.14712554216384888
4439346,0.9932861328125,-0.0693359375,-0.05816650390625,0.0712890625,33,30,2105,-3,-2,1,-832,1226,-5951,-235,306,-6119,0.10566617548465729,-0.1460341215133667,0.9835086464881897,-0.13505807518959045,0.10587546229362488,-0.14740580320358276
4448931,0.9932861328125,-0.06939697265625,-0.05828857421875,0.07147216796875,33,31,2105,-3,-2,1,-834,1228,-5951,-236,307,-6120,0.10587456077337265,-0.14619413018226624,0.9835121035575867,-0.1353951394557953,0.10607984662055969,-0.14756447076797485
4458948,0.9932861328125,-0.06951904296875,-0.058349609375,0.0716552734375,32,30,2105,-3,-2,1,-835,1229,-5951,-236,306,-6121,0.1059529036283493,-0.1464667171239853,0.9835141897201538,-0.13573114573955536,0.10615328699350357,-0.14783532917499542
4468973,0.99322509765625,-0.06964111328125,-0.0584716796875,0.07177734375,32,31,2103,-3,-2,1,-837,1233,-5952,-237,308,-6122,0.10615377128124237,-0.14673247933387756,0.9833792448043823,-0.1359618753194809,0.10636302828788757,-0.1481197029352188
4478997,0.99322509765625,-0.06976318359375,-0.05859375,0.07196044921875,33,31,2103,-3,-2,1,-838,1235,-5952,-237,308,-6123,0.10635318607091904,-0.14701396226882935,0.983374297618866,-0.13628926873207092,0.10655742883682251,-0.1484004110097885
4489026,0.9931640625,-0.06982421875,-0.05865478515625,0.0721435546875,32,31,2103,-3,-2,1,-839,1236,-5951,-238,308,-6122,0.10643291473388672,-0.14715693891048431,0.9832637310028076,-0.13665904104709625,0.1066461056470871,-0.1485590934753418
4499238,0.9931640625,-0.0699462890625,-0.0587158203125,0.07232666015625,31,31,2104,-3,-2,1,-841,1238,-5950,-239,309,-6122,0.10651092231273651,-0.1474297195672989,0.9832659959793091,-0.13699480891227722,0.10671912133693695,-0.1488300859928131
4509227,0.9931640625,-0.070068359375,-0.058837890625,0.07244873046875,30,32,2105,-3,-2,1,-844,1241,-5949,-241,310,-6122,0.10671862959861755,-0.14770421385765076,0.983252227306366,-0.13720086216926575,0.10692276060581207,-0.14910516142845154
4519216,0.99310302734375,-0.0701904296875,-0.05889892578125,0.0726318359375,29,32,2105,-3,-2,1,-845,1244,-5948,-242,311,-6121,0.10678928345441818,-0.14796853065490723,0.9831331968307495,-0.1375611126422882,0.10700137913227081,-0.14938585460186005
4529215,0.99310302734375,-0.0703125,-0.05902099609375,0.07281494140625,28,32,2106,-3,-2,1,-848,1246,-5947,-244,311,-6122,0.10698825865983963,-0.14825034141540527,0.9831283092498779,-0.1378880888223648,0.10719525068998337,-0.14966687560081482
4539207,0.9930419921875,-0.07037353515625,-0.05908203125,0.072998046875,29,32,2106,-3,-2,1,-848,1247,-5946,-244,311,-6120,0.10706761479377747,-0.14839349687099457,0.9830179810523987,-0.13825790584087372,0.10728355497121811,-0.1498258113861084
4549202,0.9930419921875,-0.07049560546875,-0.0592041015625,0.0731201171875,30,32,2105,-3,-2,1,-848,1249,-5947,-243,311,-6122,0.10727502405643463,-0.14866821467876434,0.9830041527748108,-0.13846366107463837,0.10748685151338577,-0.15010112524032593
4558789,0.99298095703125,-0.07061767578125,-0.05926513671875,0.07330322265625,31,32,2102,-3,-2,1,-848,1252,-5949,-242,312,-6124,0.10734529793262482,-0.14893266558647156,0.9828853011131287,-0.13882386684417725,0.10756509751081467,-0.15038202702999115
4568814,0.99298095703125,-0.07073974609375,-0.05938720703125,0.073486328125,31,32,2101,-3,-2,1,-849,1254,-5950,-242,312,-6126,0.10754392296075821,-0.1492147445678711,0.9828804731369019,-0.13915055990219116,0.1077585443854332,-0.15066328644752502
4578831,0.99298095703125,-0.07086181640625,-0.0594482421875,0.07366943359375,31,32,2101,-3,-2,1,-850,1256,-5950,-243,313,-6127,0.10762124508619308,-0.14948789775371552,0.9828829169273376,-0.13948574662208557,0.10783074796199799,-0.15093454718589783
4588856,0.992919921875,-0.0709228515625,-0.0595703125,0.07379150390625,29,32,2103,-3,-2,1,-854,1257,-5947,-246,312,-6124,0.10783009231090546,-0.14963299036026,0.982756495475769,-0.13972590863704681,0.10804949700832367,-0.15109796822071075
4598882,0.992919921875,-0.071044921875,-0.0596923828125,0.073974609375,30,31,2105,-3,-2,1,-854,1259,-5945,-245,313,-6123,0.10802847146987915,-0.14991527795791626,0.9827516674995422,-0.14005233347415924,0.10824266076087952,-0.15137942135334015
4609099,0.99285888671875,-0.0711669921875,-0.05975341796875,0.07415771484375,30,31,2106,-3,-2,1,-855,1261,-5943,-246,313,-6121,0.10809826105833054,-0.150179922580719,0.9826329350471497,-0.14041244983673096,0.10832040756940842,-0.15166063606739044
4619086,0.99285888671875,-0.07122802734375,-0.05987548828125,0.0743408203125,31,31,2107,-3,-2,1,-856,1262,-5942,-246,313,-6121,0.10830552130937576,-0.15034113824367523,0.9826368093490601,-0.14074848592281342,0.1085234135389328,-0.1518203616142273
4629084,0.9927978515625,-0.07135009765625,-0.0599365234375,0.074462890625,31,31,2105,-3,-2,1,-856,1264,-5943,-245,314,-6122,0.10838383436203003,-0.15059854090213776,0.9825090765953064,-0.1409875750541687,0.10861073434352875,-0.152095764875412
4639085,0.9927978515625,-0.07147216796875,-0.06005859375,0.07464599609375,31,30,2104,-3,-2,1,-858,1266,-5944,-246,314,-6124,0.10858186334371567,-0.1508810967206955,0.9825042486190796,-0.14131367206573486,0.10880348086357117,-0.15237747132778168
4649080,0.9927978515625,-0.07159423828125,-0.06011962890625,0.0748291015625,31,29,2104,-3,-2,1,-859,1267,-5944,-247,313,-6124,0.10865861177444458,-0.15115460753440857,0.9825068116188049,-0.14164841175079346,0.10887499153614044,-0.15264904499053955
4658671,0.99273681640625,-0.07171630859375,-0.06024169921875,0.074951171875,30,30,2104,-3,-2,1,-861,1270,-5943,-248,314,-6124,0.10885786265134811,-0.1514212191104889,0.9823717474937439,-0.14187872409820557,0.10908317565917969,-0.15293481945991516
4668702,0.99273681640625,-0.07177734375,-0.060302734375,0.07513427734375,31,29,2106,-3,-2,1,-861,1270,-5941,-248,313,-6122,0.10894361138343811,-0.15157362818717957,0.982383131980896,-0.14222316443920135,0.10916466265916824,-0.15308460593223572
4678723,0.99267578125,-0.0718994140625,-0.0604248046875,0.0753173828125,32,29,2105,-3,-2,1,-862,1272,-5941,-247,313,-6122,0.10913392901420593,-0.1518476903438568,0.9822572469711304,-0.1425744593143463,0.10936286300420761,-0.15337643027305603
4688742,0.99267578125,-0.072021484375,-0.06048583984375,0.07550048828125,30,31,2104,-3,-2,1,-864,1277,-5942,-249,316,-6125,0.10921034216880798,-0.1521213948726654,0.9822599291801453,-0.14290891587734222,0.10943396389484406,-0.15364815294742584
4698767,0.99267578125,-0.07208251953125,-0.06060791015625,0.07562255859375,31,31,2106,-3,-2,1,-865,1278,-5940,-249,317,-6123,0.10942588001489639,-0.15227580070495605,0.9822547435760498,-0.14312341809272766,0.10964619368314743,-0.15380246937274933
4708980,0.99261474609375,-0.07220458984375,-0.0606689453125,0.0758056640625,29,31,2105,-3,-2,1,-867,1280,-5940,-251,316,-6124,0.10949474573135376,-0.15254077315330505,0.9821363091468811,-0.14348341524600983,0.10972301661968231,-0.15408417582511902
4718980,0.99261474609375,-0.07232666015625,-0.06072998046875,0.07598876953125,29,31,2108,-3,-2,1,-868,1282,-5937,-252,317,-6121,0.10957092046737671,-0.15281462669372559,0.9821390509605408,-0.14381766319274902,0.10979382693767548,-0.1543560028076172
4728980,0.9925537109375,-0.0723876953125,-0.06085205078125,0.076171875,30,28,2108,-3,-2,1,-869,1281,-5936,-252,315,-6120,0.1097700446844101,-0.15296778082847595,0.9820220470428467,-0.14417880773544312,0.11000185459852219,-0.15452636778354645
4738560,0.9925537109375,-0.072509765625,-0.0609130859375,0.0762939453125,29,29,2106,-3,-2,1,-870,1284,-5938,-252,316,-6123,0.10985490679740906,-0.15323427319526672,0.9820155501365662,-0.1443919539451599,0.11008241027593613,-0.15479230880737305
4748583,0.99249267578125,-0.0726318359375,-0.06097412109375,0.07647705078125,32,31,2105,-3,-2,1,-868,1288,-5938,-250,319,-6123,0.10992339998483658,-0.15349936485290527,0.9818972945213318,-0.1447519212961197,0.11015883833169937,-0.15507419407367706
4758599,0.99249267578125,-0.07269287109375,-0.06109619140625,0.07666015625,32,31,2107,-3,-2,1,-870,1289,-5936,-251,319,-6122,0.11012975126504898,-0.1536615788936615,0.9819015264511108,-0.1450870931148529,0.11036074161529541,-0.15523479878902435
4768621,0.99249267578125,-0.07281494140625,-0.0611572265625,0.0767822265625,32,30,2104,-3,-2,1,-870,1290,-5939,-250,318,-6125,0.11021441221237183,-0.15392816066741943,0.9818950295448303,-0.14530006051063538,0.11044104397296906,-0.15550081431865692
4778646,0.992431640625,-0.0728759765625,-0.06121826171875,0.07696533203125,31,30,2103,-3,-2,1,-872,1292,-5939,-252,318,-6126,0.11029203236103058,-0.15407222509384155,0.9817856550216675,-0.1456700712442398,0.1105276495218277,-0.15566106140613556
4788866,0.992431640625,-0.072998046875,-0.06134033203125,0.0771484375,30,29,2102,-3,-2,1,-875,1293,-5940,-254,317,-6128,0.11048880219459534,-0.15435576438903809,0.9817810654640198,-0.14599497616291046,0.11071887612342834,-0.1559436321258545
4798862,0.99237060546875,-0.0731201171875,-0.0614013671875,0.07733154296875,31,30,2103,-3,-2,1,-874,1296,-5938,-253,319,-6126,0.11055684089660645,-0.15462103486061096,0.9816629886627197,-0.14635489881038666,0.11079484969377518,-0.1562257707118988
4808860,0.99237060546875,-0.07318115234375,-0.0615234375,0.0775146484375,30,30,2107,-3,-2,1,-877,1297,-5934,-255,319,-6123,0.11076287925243378,-0.15478357672691345,0.9816673398017883,-0.1466897577047348,0.11099634319543839,-0.15638665854930878
4818855,0.99237060546875,-0.07330322265625,-0.06158447265625,0.07763671875,31,32,2106,-3,-2,1,-877,1302,-5935,-255,322,-6125,0.11084719747304916,-0.1550503671169281,0.9816609025001526,-0.1469024121761322,0.1110762432217598,-0.15665283799171448
4828853,0.9923095703125,-0.07342529296875,-0.0616455078125,0.07781982421875,31,31,2103,-3,-2,1,-877,1303,-5937,-254,321,-6127,0.11091496795415878,-0.15531572699546814,0.9815427660942078,-0.14726227521896362,0.11115194857120514,-0.15693514049053192
4838439,0.9923095703125,-0.073486328125,-0.061767578125,0.0780029296875,30,31,2102,-3,-2,1,-880,1304,-5938,-256,321,-6128,0.11112082004547119,-0.15547847747802734,0.9815472364425659,-0.14759697020053864,0.11135321855545044,-0.15709619224071503
4848465,0.99224853515625,-0.0736083984375,-0.06182861328125,0.07818603515625,31,29,2102,-3,-2,1,-879,1304,-5937,-255,319,-6127,0.11118840426206589,-0.15574392676353455,0.9814292192459106,-0.14795683324337006,0.11142873018980026,-0.15737862884998322
4858484,0.99224853515625,-0.07373046875,-0.06195068359375,0.078369140625,29,31,2104,-3,-2,1,-883,1309,-5935,-258,322,-6127,0.1113845631480217,-0.15602794289588928,0.9814248085021973,-0.14828115701675415,0.11161920428276062,-0.157661572098732
4868509,0.9921875,-0.07379150390625,-0.06201171875,0.0784912109375,30,33,2105,-3,-2,1,-883,1312,-5933,-258,324,-6125,0.1114705353975296,-0.1561647653579712,0.981306254863739,-0.14853033423423767,0.11171530932188034,-0.1578163057565689
4878534,0.9921875,-0.07391357421875,-0.0621337890625,0.07867431640625,29,33,2105,-3,-2,1,-885,1314,-5933,-259,324,-6126,0.11166653782129288,-0.15644891560077667,0.9813018441200256,-0.14885450899600983,0.11190558969974518,-0.15809941291809082
4888754,0.9921875,-0.073974609375,-0.06219482421875,0.078857421875,30,33,2106,-3,-2,1,-885,1315,-5932,-259,325,-6125,0.11175096035003662,-0.1566024124622345,0.9813140630722046,-0.14919790625572205,0.11198544502258301,-0.15825001895427704
4898739,0.99212646484375,-0.0740966796875,-0.062255859375,0.0789794921875,28,31,2108,-3,-2,1,-888,1316,-5929,-262,324,-6123,0.11182713508605957,-0.15686042606830597,0.98118656873703,-0.149436816573143,0.11207067221403122,-0.15852664411067963
4908729,0.99212646484375,-0.07421875,-0.06231689453125,0.07916259765625,29,30,2108,-3,-2,1,-887,1317,-5929,-260,323,-6123,0.11190178245306015,-0.15713509917259216,0.9811897873878479,-0.14976979792118073,0.11213964223861694,-0.15879908204078674
4918721,0.9920654296875,-0.07427978515625,-0.0623779296875,0.079345703125,29,29,2110,-3,-2,1,-888,1317,-5927,-261,322,-6121,0.11197841167449951,-0.15727965533733368,0.9810810685157776,-0.1501399129629135,0.1122252494096756,-0.15896004438400269
4928721,0.9920654296875,-0.07440185546875,-0.0625,0.07952880859375,29,30,2107,-3,-2,1,-889,1320,-5929,-261,323,-6124,0.11217399686574936,-0.15756411850452423,0.981076717376709,-0.15046371519565582,0.11241504549980164,-0.1592434048652649
4938717,0.99200439453125,-0.07452392578125,-0.06256103515625,0.0797119140625,29,29,2108,-3,-2,1,-890,1321,-5928,-262,322,-6123,0.1122407540678978,-0.15782983601093292,0.9809589982032776,-0.1508234590291977,0.11248970031738281,-0.15952624380588531
4948297,0.99200439453125,-0.0745849609375,-0.06268310546875,0.079833984375,29,30,2109,-3,-2,1,-892,1324,-5926,-263,325,-6122,0.11245500296354294,-0.15798570215702057,0.980954110622406,-0.15103664994239807,0.11270036548376083,-0.15968191623687744
4958319,0.99200439453125,-0.07470703125,-0.062744140625,0.08001708984375,29,28,2110,-3,-2,1,-892,1324,-5926,-262,323,-6123,0.11252924799919128,-0.15826061367988586,0.9809575080871582,-0.15136927366256714,0.11276884377002716,-0.1599545031785965
4968339,0.991943359375,-0.0748291015625,-0.06280517578125,0.0802001953125,27,29,2109,-3,-2,1,-895,1327,-5926,-265,324,-6123,0.11259573698043823,-0.1585264354944229,0.9808397889137268,-0.15172900259494781,0.11284323036670685,-0.16023750603199005
4978367,0.991943359375,-0.07489013671875,-0.06292724609375,0.080322265625,28,30,2109,-3,-2,1,-896,1329,-5925,-265,325,-6123,0.11280983686447144,-0.1586824655532837,0.9808349013328552,-0.15194199979305267,0.11305371671915054,-0.16039332747459412
4988386,0.99188232421875,-0.07501220703125,-0.06298828125,0.08050537109375,28,30,2109,-3,-2,1,-896,1332,-5925,-265,326,-6123,0.11287615448236465,-0.1589483618736267,0.9807173013687134,-0.15230166912078857,0.11312790960073471,-0.16067643463611603
4998606,0.99188232421875,-0.0750732421875,-0.06304931640625,0.0806884765625,27,31,2108,-3,-2,1,-898,1334,-5926,-267,327,-6125,0.11295992136001587,-0.15910235047340393,0.9807299971580505,-0.1526445597410202,0.11320694535970688,-0.1608273684978485
5008605,0.9918212890625,-0.0751953125,-0.06317138671875,0.08087158203125,28,30,2109,-3,-2,1,-898,1335,-5924,-266,326,-6123,0.11314712464809418,-0.15937817096710205,0.9806047081947327,-0.15299510955810547,0.11340194940567017,-0.16112162172794342
5018592,0.9918212890625,-0.07525634765625,-0.063232421875,0.0810546875,29,29,2110,-3,-2,1,-898,1335,-5923,-265,325,-6122,0.11323076486587524,-0.15953226387500763,0.9806174635887146,-0.15333789587020874,0.1134808361530304,-0.16127265989780426
5028584,0.9918212890625,-0.07537841796875,-0.06329345703125,0.0811767578125,31,29,2107,-3,-2,1,-897,1338,-5926,-264,326,-6126,0.11331364512443542,-0.1597997546195984,0.9806110858917236,-0.1535492241382599,0.11355902999639511,-0.16153942048549652
5038582,0.99176025390625,-0.075439453125,-0.06341552734375,0.08135986328125,30,30,2105,-3,-2,1,-899,1340,-5927,-264,327,-6127,0.11351051926612854,-0.15995466709136963,0.9804952144622803,-0.15391026437282562,0.11376477777957916,-0.16171208024024963
5048582,0.99176025390625,-0.0755615234375,-0.06353759765625,0.08154296875,30,30,2107,-3,-2,1,-901,1342,-5925,-266,327,-6126,0.1137050986289978,-0.16023992002010345,0.9804911017417908,-0.15423309803009033,0.1139533519744873,-0.16199612617492676
5058168,0.99169921875,-0.07562255859375,-0.0635986328125,0.08172607421875,29,29,2107,-3,-2,1,-903,1342,-5924,-267,326,-6125,0.11378075927495956,-0.16038499772548676,0.9803829789161682,-0.15460333228111267,0.11403800547122955,-0.16215780377388
5068192,0.99169921875,-0.07574462890625,-0.06365966796875,0.0819091796875,29,27,2107,-3,-2,1,-903,1343,-5924,-267,325,-6126,0.11385412514209747,-0.16066040098667145,0.9803866147994995,-0.15493522584438324,0.11410541832447052,-0.1624307930469513
5078218,0.99163818359375,-0.07586669921875,-0.06378173828125,0.08203125,29,28,2108,-3,-2,1,-905,1346,-5922,-268,327,-6124,0.11404994130134583,-0.16092881560325623,0.9802514910697937,-0.15516480803489685,0.11431021988391876,-0.16271942853927612
5088232,0.99163818359375,-0.075927734375,-0.0638427734375,0.08221435546875,29,30,2107,-3,-2,1,-905,1349,-5923,-268,329,-6126,0.11413316428661346,-0.16108326613903046,0.9802646040916443,-0.15550725162029266,0.11438857018947601,-0.16287072002887726
5098260,0.9915771484375,-0.0760498046875,-0.06390380859375,0.0823974609375,30,31,2109,-3,-2,1,-905,1352,-5920,-268,330,-6123,0.11419849097728729,-0.16134952008724213,0.9801473021507263,-0.15586687624454498,0.11446176469326019,-0.16315436363220215
5108487,0.9915771484375,-0.07611083984375,-0.06402587890625,0.08258056640625,29,31,2110,-3,-2,1,-908,1354,-5919,-270,331,-6124,0.1144026443362236,-0.16151413321495056,0.9801526069641113,-0.15619994699954987,0.11466093361377716,-0.163317009806633
5118483,0.9915771484375,-0.07623291015625,-0.0640869140625,0.08270263671875,31,31,2107,-3,-2,1,-906,1356,-5922,-267,331,-6127,0.11448491364717484,-0.1617819368839264,0.9801464080810547,-0.15641072392463684,0.11473837494850159,-0.16358400881290436
5128479,0.99151611328125,-0.07635498046875,-0.06414794921875,0.0828857421875,30,34,2108,-3,-2,1,-908,1361,-5920,-270,334,-6126,0.11454997956752777,-0.16204829514026642,0.9800291657447815,-0.1567702442407608,0.11481130123138428,-0.16386778652668
5138060,0.99151611328125,-0.076416015625,-0.064208984375,0.08306884765625,29,32,2108,-3,-2,1,-910,1360,-5920,-271,332,-6126,0.11463290452957153,-0.16220295429229736,0.9800424575805664,-0.15711243450641632,0.11488928645849228,-0.16401921212673187
5148085,0.991455078125,-0.0765380859375,-0.0643310546875,0.083251953125,33,31,2108,-3,-2,1,-907,1362,-5919,-267,333,-6125,0.11481881141662598,-0.16247951984405518,0.9799175262451172,-0.15746265649795532,0.11508293449878693,-0.16431444883346558
