timestamp_us,quat_w,quat_x,quat_y,quat_z,accel_x,accel_y,accel_z,gyro_x,gyro_y,gyro_z,accel_real_x,accel_real_y,accel_real_z,accel_world_x,accel_world_y,accel_world_z,gravity_x,gravity_y,gravity_z,yaw,pitch,roll
294318,0.99993896484375,0.00360107421875,-0.0001220703125,0.0001220703125,21,21,1450,-3,-2,1,18,-37,-6740,19,11,-6739,0.00024500489234924316,0.007201679050922394,0.999864935874939,-0.0002450583560857922,0.0002450316387694329,0.0072025274857878685
304240,0.99993896484375,0.0032958984375,-0.0003662109375,0.00030517578125,22,23,1626,-3,-2,1,15,-30,-6564,19,13,-6563,0.0007343888282775879,0.006591171026229858,0.9998670816421509,-0.0006128645618446171,0.0007344703772105277,0.0065919519402086735
314268,0.99993896484375,0.0030517578125,-0.00054931640625,0.00048828125,24,26,1755,-3,-2,1,14,-23,-6435,21,16,-6434,0.0011015459895133972,0.006102606654167175,0.9998685717582703,-0.0009800763800740242,0.001101669855415821,0.006103333085775375
324489,0.99993896484375,0.0028076171875,-0.000732421875,0.00067138671875,27,29,1850,-3,-2,1,14,-16,-6340,23,19,-6339,0.0014685243368148804,0.0056139081716537476,0.9998700022697449,-0.0013471110723912716,0.0014686911599710584,0.005614578723907471
334489,0.99993896484375,0.00250244140625,-0.0009765625,0.0008544921875,28,30,1917,-3,-2,1,11,-10,-6273,23,21,-6272,0.0019572824239730835,0.005002908408641815,0.9998714327812195,-0.0017141631105914712,0.0019575071055442095,0.0050035095773637295
344488,0.99993896484375,0.00225830078125,-0.001220703125,0.00103759765625,30,29,1968,-3,-2,1,9,-7,-6222,24,21,-6221,0.0024459436535835266,0.00451379269361496,0.9998723864555359,-0.0020810659043490887,0.0024462260771542788,0.004514337982982397
354489,0.99993896484375,0.001953125,-0.00140380859375,0.001220703125,30,29,2005,-3,-2,1,6,-2,-6185,23,22,-6184,0.002812214195728302,0.0039025843143463135,0.9998736381530762,-0.0024473147932440042,0.0028125406242907047,0.003903057659044862
364071,0.99993896484375,0.001708984375,-0.00164794921875,0.00140380859375,30,28,2032,-3,-2,1,2,0,-6158,22,21,-6157,0.003300495445728302,0.0034131333231925964,0.9998742341995239,-0.0028137415647506714,0.003300879616290331,0.003413549391552806
374090,0.99993896484375,0.00146484375,-0.0018310546875,0.00152587890625,29,29,2053,-3,-2,1,-1,5,-6137,21,23,-6136,0.0036663562059402466,0.002923920750617981,0.9998747706413269,-0.003057659836485982,0.0036667834501713514,0.002924278611317277
384115,0.99993896484375,0.00115966796875,-0.0020751953125,0.001708984375,31,31,2067,-3,-2,1,-3,12,-6123,22,26,-6122,0.004154101014137268,0.002312101423740387,0.9998751878738403,-0.0034233862534165382,0.004154584836214781,0.002312385942786932
394126,0.99993896484375,0.00091552734375,-0.00225830078125,0.00189208984375,31,31,2078,-3,-2,1,-6,16,-6112,21,27,-6111,0.004519790410995483,0.0018223971128463745,0.999875545501709,-0.0037889843806624413,0.004520314745604992,0.0018226219108328223
404152,0.99993896484375,0.00067138671875,-0.00244140625,0.0020751953125,30,32,2086,-3,-2,1,-10,21,-6104,19,29,-6103,0.0048853009939193726,0.0013325586915016174,0.9998757839202881,-0.004154402296990156,0.004885864909738302,0.0013327234191820025
414373,0.99993896484375,0.0003662109375,-0.002685546875,0.00225830078125,30,31,2093,-3,-2,1,-14,25,-6097,18,29,-6096,0.0053724199533462524,0.0007202476263046265,0.9998757243156433,-0.004519364330917597,0.005373034626245499,0.0007203370332717896
424373,0.99993896484375,0.0001220703125,-0.00286865234375,0.00244140625,30,28,2099,-3,-2,1,-17,26,-6091,17,27,-6090,0.0057375505566596985,0.00023011863231658936,0.9998756647109985,-0.0048843687400221825,0.005738201085478067,0.00023014724138192832
434373,0.99993896484375,-0.00018310546875,-0.00311279296875,0.00262451171875,30,31,2102,-3,-2,1,-20,34,-6088,17,31,-6087,0.006224244832992554,-0.0003825277090072632,0.9998750686645508,-0.0052487957291305065,0.006224941462278366,-0.0003825754683930427
444350,0.99993896484375,-0.00042724609375,-0.0032958984375,0.0028076171875,29,32,2103,-3,-2,1,-24,39,-6087,15,33,-6086,0.006588995456695557,-0.0008729472756385803,0.9998747706413269,-0.005613384768366814,0.006589722819626331,-0.0008730563567951322
454331,0.99993896484375,-0.00067138671875,-0.0035400390625,0.0029296875,29,30,2106,-3,-2,1,-28,41,-6084,14,32,-6083,0.007075712084770203,-0.0013634338974952698,0.9998735189437866,-0.005855620838701725,0.007076482754200697,-0.0013636056100949645
464330,0.99993896484375,-0.0009765625,-0.00372314453125,0.00311279296875,28,31,2109,-3,-2,1,-32,47,-6081,13,35,-6080,0.007439754903316498,-0.0019761845469474792,0.9998728036880493,-0.006219360511749983,0.007440549321472645,-0.0019764334429055452
473917,0.99993896484375,-0.001220703125,-0.00390625,0.0032958984375,27,31,2109,-3,-2,1,-36,51,-6081,11,36,-6080,0.007803976535797119,-0.0024670064449310303,0.9998720288276672,-0.006583350244909525,0.007804793305695057,-0.0024673170410096645
483941,0.99993896484375,-0.00146484375,-0.004150390625,0.00347900390625,29,31,2110,-3,-2,1,-38,55,-6080,12,37,-6079,0.008290082216262817,-0.0029583871364593506,0.9998706579208374,-0.006946978159248829,0.008290928788483143,-0.0029587612953037024
493968,0.99993896484375,-0.00177001953125,-0.00433349609375,0.003662109375,30,31,2109,-3,-2,1,-40,60,-6081,12,38,-6080,0.008653499186038971,-0.0035715624690055847,0.9998694062232971,-0.007310038898140192,0.008654357865452766,-0.0035720139276236296
503993,0.99993896484375,-0.00201416015625,-0.00457763671875,0.00384521484375,30,34,2109,-3,-2,1,-44,67,-6081,11,42,-6080,0.009139224886894226,-0.004063278436660767,0.9998676776885986,-0.007673180662095547,0.009140104986727238,-0.004063793923705816
514007,0.99993896484375,-0.00225830078125,-0.0047607421875,0.0040283203125,29,33,2112,-3,-2,1,-48,70,-6078,9,42,-6077,0.009502708911895752,-0.004554681479930878,0.9998663663864136,-0.008036352694034576,0.009503594599664211,-0.004555258434265852
524225,0.99993896484375,-0.00250244140625,-0.00494384765625,0.004150390625,30,31,2111,-3,-2,1,-50,72,-6079,9,41,-6079,0.009866319596767426,-0.005045615136623383,0.9998644590377808,-0.008277259767055511,0.009867211803793907,-0.005046256352216005
534212,0.99993896484375,-0.0028076171875,-0.00518798828125,0.00433349609375,29,31,2109,-3,-2,1,-55,77,-6081,7,42,-6081,0.010351009666919708,-0.005659855902194977,0.9998618960380554,-0.00863908976316452,0.010351904667913914,-0.0056605772115290165
544213,0.99993896484375,-0.0030517578125,-0.00537109375,0.0045166015625,30,32,2112,-3,-2,1,-57,82,-6078,7,44,-6078,0.010713964700698853,-0.006151661276817322,0.9998601675033569,-0.00900165643543005,0.010714850388467312,-0.006152444053441286
554213,0.99993896484375,-0.0032958984375,-0.00555419921875,0.00469970703125,30,33,2111,-3,-2,1,-60,87,-6079,6,46,-6079,0.01107674092054367,-0.006643600761890411,0.9998583197593689,-0.009364037774503231,0.01107761263847351,-0.006644444540143013
564213,0.99993896484375,-0.0035400390625,-0.0057373046875,0.0048828125,30,34,2110,-3,-2,1,-63,92,-6080,6,48,-6080,0.011439338326454163,-0.007135674357414246,0.9998563528060913,-0.009726232849061489,0.01144019141793251,-0.007136578671634197
573800,0.99993896484375,-0.00384521484375,-0.0059814453125,0.00506591796875,27,31,2108,-3,-2,1,-70,94,-6082,2,46,-6082,0.011923201382160187,-0.007750563323497772,0.9998530745506287,-0.01008704025298357,0.011924030259251595,-0.0077515472657978535
583827,0.99993896484375,-0.00408935546875,-0.00616455078125,0.00518798828125,28,31,2109,-3,-2,1,-72,98,-6081,2,47,-6081,0.01228591799736023,-0.008242174983024597,0.9998500943183899,-0.010326733812689781,0.012286724522709846,-0.008243224583566189
593850,0.99993896484375,-0.00433349609375,-0.00634765625,0.00537109375,27,32,2110,-3,-2,1,-76,103,-6080,0,49,-6080,0.01264798641204834,-0.008734650909900665,0.9998477101325989,-0.010688317939639091,0.012648755684494972,-0.008735759183764458
603873,0.99993896484375,-0.00457763671875,-0.006591796875,0.00555419921875,26,33,2110,-3,-2,1,-81,108,-6080,-1,51,-6081,0.013131938874721527,-0.009227938950061798,0.9998443722724915,-0.01104915514588356,0.013132669031620026,-0.009229113347828388
613902,0.99993896484375,-0.0048828125,-0.00677490234375,0.0057373046875,28,31,2110,-3,-2,1,-82,111,-6080,0,51,-6081,0.013492949306964874,-0.00984276831150055,0.9998410940170288,-0.01140949409455061,0.013493621721863747,-0.00984401535242796
624124,0.99993896484375,-0.005126953125,-0.0069580078125,0.00592041015625,28,30,2111,-3,-2,1,-85,114,-6079,-1,51,-6080,0.013854458928108215,-0.010335668921470642,0.9998382925987244,-0.011770461685955524,0.013855072669684887,-0.010336972773075104
634122,0.99993896484375,-0.00537109375,-0.00714111328125,0.006103515625,28,31,2111,-3,-2,1,-88,119,-6079,-2,53,-6080,0.01421578973531723,-0.01082870364189148,0.9998353123664856,-0.012131242081522942,0.014216341078281403,-0.010830063372850418
643713,0.9998779296875,-0.005615234375,-0.00738525390625,0.00628662109375,29,31,2112,-3,-2,1,-91,123,-6077,-2,54,-6077,0.014698103070259094,-0.011321954429149628,0.9997093081474304,-0.012493429705500603,0.014700374566018581,-0.011324762366712093
653733,0.9998779296875,-0.005859375,-0.007568359375,0.0064697265625,30,31,2112,-3,-2,1,-93,127,-6077,-2,55,-6078,0.015059053897857666,-0.011815249919891357,0.9997060894966125,-0.012853868305683136,0.015061290934681892,-0.011818173341453075
663754,0.9998779296875,-0.00616455078125,-0.00775146484375,0.00665283203125,30,32,2112,-3,-2,1,-96,133,-6077,-3,57,-6078,0.015419013798236847,-0.012430734932422638,0.9997020363807678,-0.013213149271905422,0.015421194955706596,-0.012433798983693123
673778,0.9998779296875,-0.00640869140625,-0.0079345703125,0.00677490234375,30,31,2112,-3,-2,1,-99,136,-6077,-3,57,-6078,0.015780366957187653,-0.012923330068588257,0.999697744846344,-0.013451102189719677,0.01578250713646412,-0.012926517054438591
683787,0.9998779296875,-0.00665283203125,-0.0081787109375,0.0069580078125,31,32,2110,-3,-2,1,-102,141,-6079,-3,59,-6080,0.01626284420490265,-0.013417854905128479,0.9996930956840515,-0.013810135424137115,0.016264937818050385,-0.013421168550848961
694006,0.9998779296875,-0.00689697265625,-0.00836181640625,0.00714111328125,31,32,2111,-3,-2,1,-105,145,-6078,-4,60,-6079,0.016623087227344513,-0.013911686837673187,0.9996894001960754,-0.014169763773679733,0.016625110059976578,-0.013915111310780048
703982,0.9998779296875,-0.00714111328125,-0.00860595703125,0.00732421875,32,31,2111,-3,-2,1,-108,149,-6078,-4,61,-6080,0.017105206847190857,-0.014406546950340271,0.9996843934059143,-0.014528326690196991,0.0171071607619524,-0.01441009808331728
713980,0.9998779296875,-0.00738525390625,-0.0087890625,0.00750732421875,32,31,2113,-3,-2,1,-111,153,-6076,-5,62,-6078,0.01746509224176407,-0.01490066945552826,0.9996804594993591,-0.014887542463839054,0.01746695674955845,-0.014904328621923923
723979,0.9998779296875,-0.0076904296875,-0.00897216796875,0.00762939453125,33,31,2111,-3,-2,1,-113,158,-6078,-5,63,-6080,0.017824798822402954,-0.01551588624715805,0.9996744394302368,-0.015123370103538036,0.017826568335294724,-0.015519693493843079
733978,0.9998779296875,-0.00787353515625,-0.0091552734375,0.0078125,32,32,2110,-3,-2,1,-116,162,-6079,-6,65,-6081,0.018185287714004517,-0.01588819921016693,0.9996711015701294,-0.015483327209949493,0.018186967819929123,-0.015892088413238525
743980,0.9998779296875,-0.0081787109375,-0.00933837890625,0.00799560546875,31,33,2109,-3,-2,1,-120,168,-6080,-8,67,-6082,0.01854369044303894,-0.01650475710630417,0.9996657371520996,-0.015840798616409302,0.018545236438512802,-0.01650877669453621
753975,0.9998779296875,-0.00836181640625,-0.009521484375,0.0081787109375,30,32,2109,-3,-2,1,-124,170,-6080,-10,67,-6083,0.018903866410255432,-0.01687733829021454,0.9996621608734131,-0.016200419515371323,0.018905308097600937,-0.016881437972187996
763557,0.9998779296875,-0.0086669921875,-0.009765625,0.00836181640625,31,30,2111,-3,-2,1,-127,173,-6078,-10,66,-6081,0.019383922219276428,-0.017495185136795044,0.9996553063392639,-0.016556398943066597,0.019385209307074547,-0.01749943196773529
773568,0.99981689453125,-0.0089111328125,-0.00994873046875,0.008544921875,31,31,2110,-3,-2,1,-130,178,-6078,-11,68,-6080,0.01974152773618698,-0.01798902451992035,0.9995284676551819,-0.01691749319434166,0.019745076075196266,-0.017995567992329597
783597,0.99981689453125,-0.0091552734375,-0.0101318359375,0.0086669921875,28,32,2112,-3,-2,1,-136,183,-6076,-15,70,-6079,0.020101264119148254,-0.018482819199562073,0.9995225071907043,-0.017153296619653702,0.020104721188545227,-0.018489541485905647
793618,0.99981689453125,-0.0093994140625,-0.01031494140625,0.00885009765625,29,32,2111,-3,-2,1,-138,187,-6077,-14,71,-6080,0.02045973390340805,-0.01897796243429184,0.9995174407958984,-0.01751098595559597,0.020463064312934875,-0.0189848430454731
803645,0.99981689453125,-0.0096435546875,-0.010498046875,0.009033203125,29,33,2114,-3,-2,1,-141,192,-6074,-15,73,-6077,0.02081802487373352,-0.01947323977947235,0.999512255191803,-0.017868483439087868,0.02082122303545475,-0.019480278715491295
813849,0.99981689453125,-0.0098876953125,-0.01068115234375,0.00921630859375,29,32,2113,-3,-2,1,-144,195,-6074,-16,73,-6077,0.021176137030124664,-0.019968651235103607,0.999506950378418,-0.018225783482193947,0.021179189905524254,-0.019975842908024788
823846,0.99981689453125,-0.0101318359375,-0.0108642578125,0.0093994140625,29,32,2112,-3,-2,1,-147,199,-6075,-17,74,-6079,0.021534070372581482,-0.020464196801185608,0.9995015263557434,-0.018582891672849655,0.021536964923143387,-0.020471541211009026
833838,0.99981689453125,-0.0103759765625,-0.01104736328125,0.009521484375,31,30,2112,-3,-2,1,-148,201,-6075,-16,73,-6079,0.02189309149980545,-0.02095852792263031,0.9994947910308838,-0.018817735835909843,0.021895844489336014,-0.020966047421097755
843837,0.99981689453125,-0.0106201171875,-0.01129150390625,0.00970458984375,30,31,2115,-3,-2,1,-153,206,-6072,-18,75,-6076,0.022372744977474213,-0.02145550400018692,0.9994877576828003,-0.019173158332705498,0.0223753210157156,-0.02146320231258869
853829,0.99981689453125,-0.0108642578125,-0.011474609375,0.0098876953125,30,32,2115,-3,-2,1,-156,211,-6072,-19,77,-6077,0.02273017168045044,-0.021951451897621155,0.9994819164276123,-0.01952965371310711,0.022732554003596306,-0.021959301084280014
863823,0.99981689453125,-0.0111083984375,-0.01165771484375,0.01007080078125,31,33,2112,-3,-2,1,-158,216,-6075,-19,79,-6080,0.02308741956949234,-0.022447533905506134,0.9994760155677795,-0.019885949790477753,0.023089595139026642,-0.022455526515841484
873811,0.999755859375,-0.0113525390625,-0.0118408203125,0.01025390625,31,33,2112,-3,-2,1,-161,220,-6074,-20,80,-6078,0.02344304323196411,-0.02294236421585083,0.9993478655815125,-0.0202457457780838,0.023447861894965172,-0.022953303530812263
883793,0.999755859375,-0.0115966796875,-0.01202392578125,0.0103759765625,30,33,2111,-3,-2,1,-164,224,-6075,-20,81,-6080,0.023801326751708984,-0.023437216877937317,0.9993403553962708,-0.020479639992117882,0.023805992677807808,-0.023448389023542404
893775,0.999755859375,-0.0118408203125,-0.01220703125,0.01055908203125,30,31,2112,-3,-2,1,-167,227,-6074,-21,81,-6079,0.024158045649528503,-0.02393364906311035,0.9993340969085693,-0.02083541452884674,0.02416251040995121,-0.023945018649101257
903758,0.999755859375,-0.0120849609375,-0.01239013671875,0.0107421875,29,32,2110,-3,-2,1,-171,232,-6076,-23,82,-6081,0.024514585733413696,-0.02443021535873413,0.9993276000022888,-0.02119099348783493,0.02451884001493454,-0.024441784247756004
913759,0.999755859375,-0.0123291015625,-0.0125732421875,0.01092529296875,29,32,2112,-3,-2,1,-174,236,-6074,-24,83,-6080,0.024870947003364563,-0.024926915764808655,0.9993211030960083,-0.0215463750064373,0.02487497217953205,-0.024938680231571198
923752,0.999755859375,-0.0125732421875,-0.01275634765625,0.01104736328125,30,32,2109,-3,-2,1,-176,240,-6077,-24,84,-6083,0.02522866427898407,-0.025422193109989166,0.9993130564689636,-0.021779494360089302,0.025232484564185143,-0.025434182956814766
933335,0.999755859375,-0.0128173828125,-0.012939453125,0.01123046875,30,31,2107,-3,-2,1,-179,243,-6079,-25,84,-6085,0.025584697723388672,-0.02591913938522339,0.9993062019348145,-0.022134482860565186,0.025588268414139748,-0.02593132108449936
943344,0.999755859375,-0.0130615234375,-0.01312255859375,0.01141357421875,29,31,2109,-3,-2,1,-183,247,-6077,-27,85,-6084,0.025940552353858948,-0.026416219770908356,0.9992992877960205,-0.022489270195364952,0.025943854823708534,-0.0264285895973444
953378,0.999755859375,-0.0133056640625,-0.0133056640625,0.0115966796875,27,31,2111,-3,-2,1,-188,251,-6075,-30,86,-6082,0.026296228170394897,-0.026913434267044067,0.9992921948432922,-0.0228438600897789,0.0262992512434721,-0.026925986632704735
963398,0.99969482421875,-0.0135498046875,-0.01348876953125,0.01177978515625,28,32,2111,-3,-2,1,-190,256,-6074,-30,88,-6080,0.0266500785946846,-0.027409128844738007,0.9991629719734192,-0.023202477023005486,0.02665605954825878,-0.027425210922956467
973416,0.99969482421875,-0.0137939453125,-0.013671875,0.011962890625,26,33,2110,-3,-2,1,-195,261,-6075,-32,90,-6082,0.027005374431610107,-0.02790658175945282,0.9991557002067566,-0.02355673350393772,0.0270110871642828,-0.02792290411889553
983634,0.99969482421875,-0.0140380859375,-0.01385498046875,0.0120849609375,27,32,2112,-3,-2,1,-197,264,-6073,-32,90,-6080,0.02736220508813858,-0.028402477502822876,0.9991467595100403,-0.023788724094629288,0.02736767940223217,-0.02841907925903797
993633,0.99969482421875,-0.0142822265625,-0.0140380859375,0.01226806640625,28,30,2111,-3,-2,1,-199,266,-6073,-32,89,-6080,0.027717173099517822,-0.028900176286697388,0.9991392493247986,-0.024142583832144737,0.027722349390387535,-0.028917010873556137
1003633,0.99969482421875,-0.0145263671875,-0.01422119140625,0.012451171875,28,28,2109,-3,-2,1,-201,268,-6075,-32,88,-6083,0.028071962296962738,-0.029398009181022644,0.9991315603256226,-0.02449624240398407,0.02807682752609253,-0.029415074735879898
1013633,0.99969482421875,-0.01470947265625,-0.014404296875,0.01263427734375,27,29,2109,-3,-2,1,-205,272,-6075,-34,90,-6083,0.02842811495065689,-0.02977394312620163,0.9991255402565002,-0.024851547554135323,0.028432706370949745,-0.02979118563234806
1023633,0.99969482421875,-0.01495361328125,-0.01458740234375,0.0128173828125,26,30,2108,-3,-2,1,-209,277,-6076,-36,91,-6085,0.028782568871974945,-0.030272044241428375,0.9991176128387451,-0.02520482800900936,0.02878682129085064,-0.030289512127637863
1033219,0.9996337890625,-0.01519775390625,-0.0147705078125,0.01300048828125,26,31,2108,-3,-2,1,-212,283,-6075,-37,94,-6083,0.029135040938854218,-0.03076842427253723,0.99898761510849,-0.02556256391108036,0.029142489656805992,-0.030789870768785477
1043227,0.9996337890625,-0.01544189453125,-0.01495361328125,0.01318359375,28,30,2109,-3,-2,1,-213,286,-6074,-36,94,-6083,0.02948911488056183,-0.03126676380634308,0.998979389667511,-0.02591550536453724,0.029496237635612488,-0.03128849342465401
1053245,0.9996337890625,-0.01568603515625,-0.01513671875,0.01336669921875,29,30,2108,-3,-2,1,-215,290,-6075,-36,95,-6084,0.029843010008335114,-0.03176523745059967,0.9989712238311768,-0.026268245652318,0.029849784448742867,-0.031787239015102386
1063270,0.9996337890625,-0.015869140625,-0.01531982421875,0.0135498046875,29,31,2110,-3,-2,1,-218,294,-6073,-37,97,-6082,0.03019838035106659,-0.03214181959629059,0.9989647269248962,-0.02662275731563568,0.030204853042960167,-0.03216403350234032
1073292,0.9996337890625,-0.01611328125,-0.0155029296875,0.01373291015625,27,31,2111,-3,-2,1,-223,298,-6072,-39,98,-6082,0.030551940202713013,-0.03264056146144867,0.9989563226699829,-0.026975117623806,0.030558032914996147,-0.03266304358839989
1083510,0.9996337890625,-0.016357421875,-0.01568603515625,0.013916015625,28,31,2110,-3,-2,1,-225,302,-6073,-39,99,-6083,0.03090532124042511,-0.033139437437057495,0.9989477396011353,-0.027327274903655052,0.03091101534664631,-0.033162184059619904
1093508,0.9996337890625,-0.0166015625,-0.015869140625,0.0140380859375,28,30,2110,-3,-2,1,-228,305,-6073,-40,99,-6083,0.031260550022125244,-0.033636510372161865,0.9989373087882996,-0.027557184919714928,0.03126588836312294,-0.03365957364439964
1103500,0.99957275390625,-0.016845703125,-0.01605224609375,0.01422119140625,29,29,2111,-3,-2,1,-229,308,-6071,-39,99,-6081,0.031611643731594086,-0.03413357585668564,0.9988064765930176,-0.0279140155762434,0.03162040933966637,-0.03416106849908829
1113497,0.99957275390625,-0.01708984375,-0.0162353515625,0.014404296875,30,28,2113,-3,-2,1,-231,311,-6069,-39,99,-6079,0.0319644957780838,-0.03463280200958252,0.9987975358963013,-0.028265628963708878,0.03197285905480385,-0.03466060757637024
1123478,0.99957275390625,-0.01727294921875,-0.01641845703125,0.01458740234375,29,30,2113,-3,-2,1,-235,316,-6069,-41,102,-6080,0.032318949699401855,-0.035010144114494324,0.9987905025482178,-0.02861916273832321,0.03232695907354355,-0.03503819555044174
1133472,0.99957275390625,-0.01751708984375,-0.0166015625,0.01470947265625,30,31,2111,-3,-2,1,-237,321,-6071,-41,103,-6082,0.03267360478639603,-0.03550761193037033,0.9987795948982239,-0.028848344460129738,0.03268123418092728,-0.035536035895347595
1143450,0.99957275390625,-0.01776123046875,-0.01678466796875,0.014892578125,31,31,2113,-3,-2,1,-239,325,-6068,-41,104,-6080,0.03302597254514694,-0.036007218062877655,0.9987702369689941,-0.029199371114373207,0.03303314745426178,-0.03603594750165939
1153451,0.99957275390625,-0.0179443359375,-0.0169677734375,0.01507568359375,32,33,2114,-3,-2,1,-241,331,-6067,-41,108,-6079,0.03338000178337097,-0.0363849401473999,0.9987630844116211,-0.02955240197479725,0.033386774361133575,-0.03641389682888985
1163433,0.99951171875,-0.0181884765625,-0.01715087890625,0.0152587890625,31,34,2114,-3,-2,1,-245,336,-6066,-43,110,-6078,0.03372994065284729,-0.03688259422779083,0.9986315369606018,-0.02990848384797573,0.033740341663360596,-0.03691635653376579
1173432,0.99951171875,-0.0184326171875,-0.017333984375,0.015380859375,32,31,2113,-3,-2,1,-247,337,-6067,-43,108,-6079,0.0340840220451355,-0.03738045692443848,0.9986200332641602,-0.03013692982494831,0.03409401699900627,-0.03741464391350746
1183426,0.99951171875,-0.01861572265625,-0.01751708984375,0.01556396484375,32,30,2112,-3,-2,1,-250,339,-6068,-44,108,-6080,0.03443760424852371,-0.037758536636829376,0.9986125230789185,-0.03048950806260109,0.03444719687104225,-0.03779299557209015
1193008,0.99951171875,-0.01885986328125,-0.0177001953125,0.0157470703125,33,30,2111,-3,-2,1,-251,343,-6069,-42,109,-6082,0.034789130091667175,-0.038258761167526245,0.9986026287078857,-0.030839625746011734,0.03479821979999542,-0.03829357028007507
1203033,0.99951171875,-0.01910400390625,-0.01788330078125,0.01593017578125,31,30,2111,-3,-2,1,-256,347,-6069,-45,109,-6082,0.03514047712087631,-0.03875911980867386,0.9985926747322083,-0.031189540401101112,0.035149041563272476,-0.038794271647930145
1213057,0.99951171875,-0.01934814453125,-0.01806640625,0.01611328125,31,33,2111,-3,-2,1,-259,354,-6069,-46,113,-6083,0.03549164533615112,-0.03925961256027222,0.9985825419425964,-0.03153924643993378,0.03549966961145401,-0.039295099675655365
1223085,0.99945068359375,-0.01953125,-0.0181884765625,0.01629638671875,30,32,2110,-3,-2,1,-262,356,-6069,-48,113,-6083,0.03572039306163788,-0.0396338552236557,0.9984549880027771,-0.031899306923151016,0.03573229908943176,-0.03967435657978058
1233112,0.99945068359375,-0.019775390625,-0.01837158203125,0.0164794921875,30,31,2110,-3,-2,1,-265,359,-6069,-49,113,-6083,0.03607120364904404,-0.04013456404209137,0.9984446167945862,-0.03224871680140495,0.03608257323503494,-0.040175456553697586
1243315,0.99945068359375,-0.01995849609375,-0.01861572265625,0.01666259765625,31,33,2112,-3,-2,1,-268,364,-6067,-49,116,-6082,0.03654587268829346,-0.040515437722206116,0.9984344244003296,-0.03259790688753128,0.03655678406357765,-0.04055671766400337
1253306,0.99945068359375,-0.02020263671875,-0.01873779296875,0.01678466796875,30,30,2110,-3,-2,1,-271,365,-6069,-51,113,-6084,0.03677681088447571,-0.04101209342479706,0.9984241127967834,-0.03282732143998146,0.03678721934556961,-0.04105374589562416
1263306,0.99945068359375,-0.02044677734375,-0.0189208984375,0.0169677734375,30,33,2111,-3,-2,1,-274,373,-6068,-52,118,-6084,0.037127137184143066,-0.04151318222284317,0.9984135031700134,-0.03317613899707794,0.037136949598789215,-0.04155521094799042
1273306,0.99945068359375,-0.0206298828125,-0.01910400390625,0.01715087890625,31,33,2109,-3,-2,1,-276,376,-6069,-52,119,-6085,0.037479378283023834,-0.0418924018740654,0.9984052777290344,-0.03352724760770798,0.0374886691570282,-0.04193471744656563
1282890,0.9993896484375,-0.0208740234375,-0.019287109375,0.017333984375,30,34,2109,-3,-2,1,-279,381,-6068,-53,121,-6084,0.0378270149230957,-0.04239121079444885,0.9982724189758301,-0.03388182818889618,0.03784028813242912,-0.04243907704949379
1292916,0.9993896484375,-0.0211181640625,-0.01947021484375,0.01751708984375,31,32,2109,-3,-2,1,-281,383,-6068,-53,120,-6084,0.03817680478096008,-0.04289267212152481,0.9982614517211914,-0.03423010930418968,0.03818945959210396,-0.042940959334373474
1302921,0.9993896484375,-0.0213623046875,-0.0196533203125,0.01763916015625,30,31,2110,-3,-2,1,-285,386,-6067,-54,120,-6084,0.03852902352809906,-0.043391868472099304,0.9982482194900513,-0.03445613756775856,0.03854112699627876,-0.04344066604971886
1312941,0.9993896484375,-0.02154541015625,-0.01983642578125,0.017822265625,29,30,2112,-3,-2,1,-289,388,-6065,-56,119,-6082,0.03888066112995148,-0.04377157986164093,0.9982395768165588,-0.03480660542845726,0.038892216980457306,-0.04382070153951645
1322959,0.9993896484375,-0.02178955078125,-0.02001953125,0.01800537109375,32,29,2113,-3,-2,1,-289,391,-6064,-54,119,-6081,0.03922996670007706,-0.04427342116832733,0.9982282519340515,-0.03515428304672241,0.039240844547748566,-0.04432295635342598
1332984,0.99932861328125,-0.02203369140625,-0.02020263671875,0.0181884765625,30,29,2113,-3,-2,1,-294,395,-6063,-57,120,-6080,0.03957662731409073,-0.04477270692586899,0.9980948567390442,-0.03550819680094719,0.03959163278341293,-0.04482811689376831
1343205,0.99932861328125,-0.022216796875,-0.0203857421875,0.01837158203125,31,31,2111,-3,-2,1,-296,400,-6065,-57,123,-6083,0.03992779552936554,-0.04515279829502106,0.9980860948562622,-0.03585819900035858,0.03994223475456238,-0.045208558440208435
1353204,0.99932861328125,-0.0224609375,-0.02056884765625,0.0185546875,30,30,2110,-3,-2,1,-299,404,-6066,-58,124,-6084,0.04027656465768814,-0.045655012130737305,0.9980744123458862,-0.03620533272624016,0.04029030352830887,-0.045711226761341095
1363202,0.99932861328125,-0.02264404296875,-0.02069091796875,0.01873779296875,29,28,2112,-3,-2,1,-302,405,-6064,-60,122,-6083,0.04050545394420624,-0.04603308439254761,0.9980679154396057,-0.03655775636434555,0.04051857814192772,-0.0460895337164402
1372790,0.99932861328125,-0.02288818359375,-0.0208740234375,0.0189208984375,29,28,2112,-3,-2,1,-305,409,-6064,-61,123,-6083,0.04085388779640198,-0.04653554409742355,0.9980561137199402,-0.03690452501177788,0.040866270661354065,-0.046592436730861664
1382816,0.99932861328125,-0.0230712890625,-0.02105712890625,0.01910400390625,31,29,2112,-3,-2,1,-306,413,-6064,-60,125,-6084,0.04120447486639023,-0.04691614955663681,0.9980469942092896,-0.037253860384225845,0.04121621325612068,-0.04697337746620178
1392836,0.999267578125,-0.0233154296875,-0.021240234375,0.01922607421875,31,31,2112,-3,-2,1,-309,419,-6062,-61,128,-6082,0.0415528267621994,-0.04741343855857849,0.9979106187820435,-0.0374850258231163,0.04156894609332085,-0.047477006912231445
1402865,0.999267578125,-0.0235595703125,-0.02142333984375,0.0194091796875,32,30,2110,-3,-2,1,-311,422,-6064,-61,128,-6084,0.04190075397491455,-0.04791624844074249,0.9978983998298645,-0.037831250578165054,0.04191611334681511,-0.047980308532714844
1412880,0.999267578125,-0.02374267578125,-0.02154541015625,0.01959228515625,32,30,2107,-3,-2,1,-313,425,-6067,-61,128,-6087,0.04212891310453415,-0.04829481989145279,0.9978916049003601,-0.03818301856517792,0.042143601924180984,-0.04835912585258484
1423083,0.999267578125,-0.02398681640625,-0.021728515625,0.019775390625,30,31,2107,-3,-2,1,-317,430,-6067,-63,130,-6088,0.042476505041122437,-0.04879787564277649,0.9978792667388916,-0.03852887451648712,0.042490385472774506,-0.04886265844106674
1433079,0.999267578125,-0.024169921875,-0.02191162109375,0.01995849609375,28,32,2111,-3,-2,1,-322,434,-6063,-66,132,-6085,0.04282635450363159,-0.0491790845990181,0.9978697299957275,-0.038877420127391815,0.04283953085541725,-0.0492442287504673
1443063,0.99920654296875,-0.02435302734375,-0.0220947265625,0.0201416015625,29,33,2111,-3,-2,1,-324,438,-6062,-66,134,-6083,0.043173372745513916,-0.04955745488405228,0.9977381825447083,-0.03923292085528374,0.0431910865008831,-0.04962901398539543
1453057,0.99920654296875,-0.02459716796875,-0.02227783203125,0.020263671875,28,31,2110,-3,-2,1,-328,441,-6063,-68,133,-6085,0.043523453176021576,-0.050058163702487946,0.9977229833602905,-0.03945622593164444,0.04354044795036316,-0.05013037100434303
1463059,0.99920654296875,-0.02484130859375,-0.0224609375,0.02044677734375,25,31,2112,-3,-2,1,-334,445,-6061,-72,134,-6084,0.04387038201093674,-0.050561703741550446,0.9977102279663086,-0.03980134800076485,0.04388651251792908,-0.05063442513346672
1473057,0.99920654296875,-0.0250244140625,-0.0225830078125,0.0206298828125,25,32,2111,-3,-2,1,-336,449,-6062,-73,136,-6085,0.04409767687320709,-0.05094088613986969,0.9977031350135803,-0.04015232250094414,0.04411306232213974,-0.05101386085152626
1483048,0.9991455078125,-0.0252685546875,-0.02276611328125,0.02081298828125,27,33,2112,-3,-2,1,-337,454,-6060,-72,138,-6083,0.04444149136543274,-0.05144158750772476,0.9975681304931641,-0.040504418313503265,0.04446139559149742,-0.05152135714888573
1492626,0.9991455078125,-0.0255126953125,-0.02294921875,0.02093505859375,27,33,2111,-3,-2,1,-339,458,-6060,-72,139,-6084,0.044790998101234436,-0.051942676305770874,0.9975524544715881,-0.04072698950767517,0.044810134917497635,-0.052023135125637054
1502646,0.9991455078125,-0.02569580078125,-0.02313232421875,0.0211181640625,27,34,2110,-3,-2,1,-342,462,-6061,-73,140,-6085,0.045139819383621216,-0.05232471227645874,0.9975422620773315,-0.04107445105910301,0.04515818879008293,-0.05240560322999954
1512674,0.9991455078125,-0.02593994140625,-0.02325439453125,0.02130126953125,30,33,2111,-3,-2,1,-341,465,-6060,-71,140,-6085,0.04536394029855728,-0.05282624810934067,0.9975318312644958,-0.04142181575298309,0.045381367206573486,-0.05290753021836281
1522684,0.9991455078125,-0.026123046875,-0.0234375,0.021484375,29,32,2110,-3,-2,1,-345,467,-6061,-73,140,-6086,0.04571247100830078,-0.05320852994918823,0.9975215792655945,-0.04176895692944527,0.04572908952832222,-0.0532902255654335
1532710,0.99908447265625,-0.02630615234375,-0.02362060546875,0.02166748046875,30,31,2110,-3,-2,1,-347,469,-6060,-73,140,-6085,0.04605798423290253,-0.05358773469924927,0.9973893165588379,-0.042123567312955856,0.04607939347624779,-0.05367639288306236
1542931,0.99908447265625,-0.02655029296875,-0.0238037109375,0.02178955078125,29,30,2111,-3,-2,1,-351,473,-6059,-75,140,-6084,0.04640679806470871,-0.05408931523561478,0.9973730444908142,-0.04234524071216583,0.046427369117736816,-0.05417870730161667
1552925,0.99908447265625,-0.0267333984375,-0.02392578125,0.02197265625,30,29,2108,-3,-2,1,-352,475,-6062,-74,140,-6088,0.04663294553756714,-0.0544692724943161,0.9973654747009277,-0.04269519820809364,0.04665268212556839,-0.054558951407670975
1562915,0.99908447265625,-0.0269775390625,-0.02410888671875,0.02215576171875,29,29,2108,-3,-2,1,-355,479,-6062,-75,141,-6088,0.046978212893009186,-0.05497398227453232,0.9973516464233398,-0.043038517236709595,0.046996936202049255,-0.05506423860788345
1572908,0.99908447265625,-0.02716064453125,-0.0242919921875,0.0223388671875,27,30,2109,-3,-2,1,-360,483,-6061,-78,142,-6088,0.04732602834701538,-0.055356867611408234,0.997340977191925,-0.04338487237691879,0.04734387248754501,-0.05544756352901459
1582902,0.9990234375,-0.02740478515625,-0.0244140625,0.02252197265625,28,29,2108,-3,-2,1,-361,486,-6061,-78,142,-6088,0.04754602164030075,-0.055855751037597656,0.9972079992294312,-0.043739061802625656,0.047568611800670624,-0.05595367029309273
1592902,0.9990234375,-0.027587890625,-0.02459716796875,0.022705078125,26,30,2110,-3,-2,1,-366,490,-6059,-81,144,-6087,0.047893524169921875,-0.05623885989189148,0.9971972107887268,-0.044085148721933365,0.04791523888707161,-0.05633724853396416
1602491,0.9990234375,-0.02783203125,-0.0247802734375,0.02288818359375,26,29,2108,-3,-2,1,-369,493,-6060,-82,144,-6088,0.04823809862136841,-0.0567440539598465,0.9971830248832703,-0.04442773759365082,0.04825873672962189,-0.056843049824237823
1612514,0.9990234375,-0.02801513671875,-0.02490234375,0.02301025390625,26,30,2110,-3,-2,1,-371,497,-6058,-83,145,-6087,0.04846677929162979,-0.05712157487869263,0.9971722960472107,-0.04465489462018013,0.04848663881421089,-0.05722102150321007
1622540,0.99896240234375,-0.0281982421875,-0.02508544921875,0.023193359375,27,31,2108,-3,-2,1,-372,502,-6059,-82,148,-6088,0.048810817301273346,-0.057501599192619324,0.9970393776893616,-0.04500864818692207,0.04883568361401558,-0.057608529925346375
1632569,0.99896240234375,-0.0284423828125,-0.0252685546875,0.02337646484375,27,30,2109,-3,-2,1,-375,505,-6058,-83,148,-6087,0.04915490746498108,-0.058007121086120605,0.9970248937606812,-0.04535073786973953,0.04917867109179497,-0.05811470001935959
1642597,0.99896240234375,-0.02862548828125,-0.025390625,0.0235595703125,28,31,2111,-3,-2,1,-376,509,-6056,-82,150,-6086,0.049379751086235046,-0.05838795751333237,0.9970167875289917,-0.045699529349803925,0.04940256103873253,-0.05849585309624672
1652809,0.99896240234375,-0.02880859375,-0.02557373046875,0.02374267578125,27,33,2111,-3,-2,1,-380,514,-6056,-84,152,-6086,0.04972640424966812,-0.058771781623363495,0.9970056414604187,-0.04604468494653702,0.04974823817610741,-0.05888015404343605
1662793,0.9989013671875,-0.029052734375,-0.0257568359375,0.02386474609375,30,32,2111,-3,-2,1,-380,517,-6055,-82,152,-6085,0.05007040500640869,-0.05927099287509918,0.99686598777771,-0.04627259820699692,0.05009732022881508,-0.059387415647506714
1672777,0.9989013671875,-0.02923583984375,-0.02587890625,0.0240478515625,30,30,2112,-3,-2,1,-382,518,-6054,-83,151,-6085,0.05029483139514923,-0.05965210497379303,0.996857762336731,-0.04662103205919266,0.050320759415626526,-0.05976886302232742
1682759,0.9989013671875,-0.0294189453125,-0.02606201171875,0.02423095703125,29,30,2112,-3,-2,1,-385,521,-6054,-84,152,-6085,0.05064105987548828,-0.06003626435995102,0.9968463778495789,-0.04696575552225113,0.05066598579287529,-0.0601535364985466
1692751,0.9989013671875,-0.0296630859375,-0.02618408203125,0.0244140625,30,29,2112,-3,-2,1,-386,524,-6054,-84,151,-6086,0.05086223781108856,-0.06053951382637024,0.9968344569206238,-0.04731038212776184,0.05088595300912857,-0.060657259076833725
1702745,0.9989013671875,-0.02984619140625,-0.0263671875,0.0245361328125,29,30,2112,-3,-2,1,-390,529,-6053,-86,154,-6085,0.05121181905269623,-0.060920700430870056,0.9968199133872986,-0.047532785683870316,0.051234640181064606,-0.06103913486003876
1712741,0.99884033203125,-0.03009033203125,-0.02655029296875,0.02471923828125,30,31,2113,-3,-2,1,-392,534,-6051,-86,156,-6083,0.05155138671398163,-0.06142348051071167,0.9966827034950256,-0.0478820726275444,0.05157923325896263,-0.061550073325634
1722732,0.99884033203125,-0.0302734375,-0.02667236328125,0.02490234375,29,31,2109,-3,-2,1,-395,537,-6055,-88,156,-6088,0.05177510529756546,-0.06180506944656372,0.9966742396354675,-0.04822986200451851,0.0518018901348114,-0.061932001262903214
1732729,0.99884033203125,-0.03045654296875,-0.02685546875,0.02508544921875,30,31,2108,-3,-2,1,-396,540,-6056,-86,157,-6090,0.052120618522167206,-0.06218980997800827,0.9966624975204468,-0.0485738068819046,0.05214632302522659,-0.062317270785570145
1742723,0.99884033203125,-0.03070068359375,-0.02703857421875,0.0252685546875,30,31,2109,-3,-2,1,-399,544,-6055,-88,158,-6089,0.05246291309595108,-0.06269661337137222,0.9966468811035156,-0.04891391098499298,0.052487317472696304,-0.06282476335763931
1752712,0.998779296875,-0.0308837890625,-0.02716064453125,0.02545166015625,30,30,2109,-3,-2,1,-401,546,-6054,-88,158,-6088,0.052682891488075256,-0.0630747452378273,0.9965163469314575,-0.04927018657326698,0.05271260067820549,-0.06321091949939728
1762296,0.998779296875,-0.03106689453125,-0.02734375,0.025634765625,28,31,2107,-3,-2,1,-406,550,-6056,-91,159,-6091,0.053027957677841187,-0.0634598433971405,0.9965043663978577,-0.04961368441581726,0.05305655673146248,-0.06359657645225525
1772318,0.998779296875,-0.03125,-0.0274658203125,0.0257568359375,31,28,2108,-3,-2,1,-405,550,-6055,-89,157,-6090,0.053254783153533936,-0.06383857131004333,0.9964925646781921,-0.049838852137327194,0.053282417356967926,-0.06397584080696106
1782333,0.998779296875,-0.031494140625,-0.02764892578125,0.02593994140625,30,28,2108,-3,-2,1,-409,555,-6055,-91,158,-6091,0.053596436977386475,-0.0643458142876625,0.9964765906333923,-0.05017828196287155,0.05362270772457123,-0.06448380649089813
1792344,0.99871826171875,-0.03167724609375,-0.02783203125,0.026123046875,30,28,2107,-3,-2,1,-411,558,-6055,-91,159,-6091,0.053937703371047974,-0.06472740322351456,0.9963425397872925,-0.05053041875362396,0.0539693646132946,-0.0648738443851471
1802376,0.99871826171875,-0.0318603515625,-0.0279541015625,0.02630615234375,31,28,2109,-3,-2,1,-412,561,-6052,-91,160,-6088,0.05416029691696167,-0.06510975956916809,0.9963337182998657,-0.05087719485163689,0.05419078469276428,-0.06525655835866928
1812593,0.99871826171875,-0.03204345703125,-0.02813720703125,0.0264892578125,31,30,2108,-3,-2,1,-415,566,-6053,-92,162,-6090,0.054504670202732086,-0.06549543887376785,0.9963213205337524,-0.05121992900967598,0.05453396961092949,-0.065642811357975
1822592,0.99871826171875,-0.0322265625,-0.0283203125,0.02667236328125,28,30,2107,-3,-2,1,-421,569,-6054,-96,163,-6092,0.05484890937805176,-0.06588125228881836,0.9963090419769287,-0.05156249925494194,0.05487698316574097,-0.06602919101715088
1832572,0.9986572265625,-0.032470703125,-0.0284423828125,0.02685546875,29,29,2110,-3,-2,1,-422,572,-6050,-96,163,-6088,0.05506435036659241,-0.06638187170028687,0.996174156665802,-0.05191437155008316,0.055097684264183044,-0.06653844565153122
1842556,0.9986572265625,-0.03265380859375,-0.02862548828125,0.0269775390625,26,29,2110,-3,-2,1,-427,575,-6050,-98,163,-6088,0.05541226267814636,-0.06676441431045532,0.9961583018302917,-0.052134688943624496,0.05544456094503403,-0.06692180782556534
1852541,0.9986572265625,-0.0328369140625,-0.02874755859375,0.02716064453125,29,29,2108,-3,-2,1,-426,579,-6052,-96,165,-6091,0.05563417077064514,-0.06714724749326706,0.9961493015289307,-0.052480824291706085,0.055665213614702225,-0.06730499863624573
1862540,0.9986572265625,-0.03302001953125,-0.0289306640625,0.02734375,29,31,2109,-3,-2,1,-429,584,-6051,-97,168,-6091,0.055977851152420044,-0.06753350794315338,0.9961366057395935,-0.052822794765233994,0.05600761994719505,-0.06769184023141861
1872532,0.99859619140625,-0.03326416015625,-0.029052734375,0.02752685546875,28,30,2111,-3,-2,1,-432,587,-6048,-99,168,-6088,0.056192584335803986,-0.06803438812494278,0.9960015416145325,-0.053174298256635666,0.056227680295705795,-0.06820157170295715
1882529,0.99859619140625,-0.033447265625,-0.02923583984375,0.0277099609375,31,31,2109,-3,-2,1,-432,591,-6050,-97,169,-6090,0.05653595179319382,-0.06842087209224701,0.9959887266159058,-0.05351598560810089,0.05656975880265236,-0.06858867406845093
1892526,0.99859619140625,-0.03363037109375,-0.02935791015625,0.02783203125,29,30,2111,-3,-2,1,-435,593,-6048,-99,169,-6089,0.05676139146089554,-0.06880050152540207,0.9959760904312134,-0.05373965576291084,0.05679408088326454,-0.06896890699863434
1902524,0.99859619140625,-0.0338134765625,-0.029541015625,0.02801513671875,27,29,2111,-3,-2,1,-440,595,-6047,-102,168,-6088,0.05710451304912567,-0.0691872090101242,0.9959632158279419,-0.054081037640571594,0.057135868817567825,-0.06935621052980423
1912111,0.99853515625,-0.0340576171875,-0.0296630859375,0.0281982421875,28,31,2110,-3,-2,1,-441,601,-6047,-102,171,-6088,0.057318538427352905,-0.0696883499622345,0.9958277940750122,-0.05443216487765312,0.057355284690856934,-0.06986641883850098
1922122,0.99853515625,-0.03424072265625,-0.02984619140625,0.02838134765625,28,31,2112,-3,-2,1,-444,605,-6045,-103,173,-6087,0.05766134709119797,-0.07007528096437454,0.9958147406578064,-0.05477325618267059,0.057696741074323654,-0.07025398313999176
1932150,0.99853515625,-0.034423828125,-0.02996826171875,0.02850341796875,30,31,2112,-3,-2,1,-444,608,-6045,-102,174,-6088,0.057886332273483276,-0.07045520097017288,0.9958018064498901,-0.05499643087387085,0.05792056396603584,-0.07063452899456024
1942179,0.99853515625,-0.03460693359375,-0.03009033203125,0.0286865234375,29,30,2112,-3,-2,1,-447,610,-6045,-103,173,-6088,0.058107003569602966,-0.07083885371685028,0.9957922697067261,-0.055341433733701706,0.05813984200358391,-0.07101853936910629
1952202,0.99847412109375,-0.0347900390625,-0.0302734375,0.02886962890625,31,28,2110,-3,-2,1,-447,611,-6046,-101,172,-6089,0.05844573676586151,-0.07122187316417694,0.995657205581665,-0.05569213628768921,0.0584842823445797,-0.0714108869433403
1962426,0.99847412109375,-0.03497314453125,-0.0303955078125,0.029052734375,30,28,2110,-3,-2,1,-450,614,-6046,-103,172,-6090,0.05866612493991852,-0.07160570472478867,0.9956476092338562,-0.056036919355392456,0.058703258633613586,-0.07179511338472366
1972420,0.99847412109375,-0.03521728515625,-0.030517578125,0.02923583984375,31,27,2111,-3,-2,1,-451,617,-6045,-103,172,-6089,0.058882810175418854,-0.07211150974035263,0.9956337213516235,-0.05637736991047859,0.05891825258731842,-0.07230149954557419
1982420,0.9984130859375,-0.035400390625,-0.03070068359375,0.0294189453125,31,29,2109,-3,-2,1,-454,622,-6046,-104,175,-6090,0.059221044182777405,-0.07249478995800018,0.9954984188079834,-0.0567278154194355,0.05926224961876869,-0.07269428670406342
1992008,0.9984130859375,-0.03558349609375,-0.03082275390625,0.029541015625,30,29,2110,-3,-2,1,-456,625,-6045,-105,175,-6090,0.0594453364610672,-0.07287512719631195,0.9954851269721985,-0.056950293481349945,0.059485312551259995,-0.07307528704404831
2002036,0.9984130859375,-0.0357666015625,-0.031005859375,0.02972412109375,30,29,2108,-3,-2,1,-459,629,-6046,-106,177,-6092,0.059787049889564514,-0.07326292991638184,0.9954715967178345,-0.05729022994637489,0.05982555076479912,-0.07346375286579132
2012057,0.9984130859375,-0.03594970703125,-0.0311279296875,0.0299072265625,30,31,2108,-3,-2,1,-461,634,-6046,-106,179,-6092,0.060006752610206604,-0.07364721596240997,0.9954617619514465,-0.057634372264146805,0.060043759644031525,-0.0738484263420105
2022084,0.99835205078125,-0.0361328125,-0.03131103515625,0.03009033203125,30,32,2108,-3,-2,1,-464,638,-6045,-108,181,-6091,0.06034437566995621,-0.07403085380792618,0.9953263401985168,-0.05798446014523506,0.06038721278309822,-0.0742417722940445
2032307,0.99835205078125,-0.036376953125,-0.03143310546875,0.0302734375,31,30,2109,-3,-2,1,-465,640,-6044,-107,180,-6091,0.06056009978055954,-0.07453718781471252,0.995311975479126,-0.05832403525710106,0.06060114502906799,-0.07474873960018158
2042295,0.99835205078125,-0.03656005859375,-0.0316162109375,0.03045654296875,31,30,2113,-3,-2,1,-467,643,-6040,-108,181,-6088,0.060901232063770294,-0.07492545992136002,0.9952982664108276,-0.05866335332393646,0.06094072759151459,-0.07513768970966339
2052292,0.99835205078125,-0.0367431640625,-0.03173828125,0.03057861328125,31,30,2113,-3,-2,1,-469,646,-6040,-108,181,-6088,0.06112484633922577,-0.0753062516450882,0.9952845573425293,-0.05888506397604942,0.06116301566362381,-0.0755191445350647
2062286,0.998291015625,-0.03692626953125,-0.0318603515625,0.03076171875,32,31,2114,-3,-2,1,-470,651,-6038,-108,184,-6086,0.06133997440338135,-0.0756864845752716,0.9951525926589966,-0.05923927202820778,0.06138404831290245,-0.07590901851654053
2072280,0.998291015625,-0.037109375,-0.03204345703125,0.03094482421875,31,30,2115,-3,-2,1,-474,653,-6037,-110,184,-6086,0.06168070435523987,-0.07607506960630417,0.9951386451721191,-0.05957818403840065,0.061723195016384125,-0.0762983039021492
2082281,0.998291015625,-0.03729248046875,-0.03216552734375,0.0311279296875,31,30,2113,-3,-2,1,-476,656,-6039,-111,184,-6089,0.06189943850040436,-0.07645998895168304,0.9951285123825073,-0.059921469539403915,0.061940327286720276,-0.07668361812829971
2092273,0.99822998046875,-0.0374755859375,-0.0323486328125,0.03131103515625,28,32,2112,-3,-2,1,-481,661,-6038,-114,187,-6088,0.06223595142364502,-0.0768442451953888,0.9949926733970642,-0.06027093902230263,0.06228278577327728,-0.0770779624581337
2101857,0.99822998046875,-0.03765869140625,-0.032470703125,0.03143310546875,27,32,2113,-3,-2,1,-484,664,-6037,-116,187,-6088,0.06245899945497513,-0.07722537964582443,0.994978666305542,-0.060492075979709625,0.06250445544719696,-0.07745981961488724
2111878,0.99822998046875,-0.03790283203125,-0.0325927734375,0.0316162109375,27,31,2110,-3,-2,1,-486,667,-6040,-116,187,-6091,0.06267347931861877,-0.07773240655660629,0.9949637651443481,-0.06083047017455101,0.0627169981598854,-0.07796749472618103
2121893,0.99822998046875,-0.0380859375,-0.03271484375,0.03179931640625,26,32,2109,-3,-2,1,-489,671,-6041,-118,188,-6093,0.06289166212081909,-0.07811766862869263,0.9949535131454468,-0.06117326766252518,0.06293350458145142,-0.078353151679039
2131903,0.9981689453125,-0.03826904296875,-0.03289794921875,0.031982421875,29,32,2108,-3,-2,1,-488,675,-6041,-115,190,-6093,0.06322754919528961,-0.07850225269794464,0.9948172569274902,-0.06152236461639404,0.06327540427446365,-0.07874804735183716
2141929,0.9981689453125,-0.0384521484375,-0.03302001953125,0.0321044921875,29,30,2110,-3,-2,1,-490,676,-6039,-116,189,-6092,0.06345014274120331,-0.07888366281986237,0.9948030114173889,-0.06174302473664284,0.06349655985832214,-0.07913018763065338
2152148,0.9981689453125,-0.03863525390625,-0.033203125,0.03228759765625,29,31,2109,-3,-2,1,-493,680,-6040,-117,190,-6093,0.06378977745771408,-0.07927311956882477,0.9947885870933533,-0.0620807446539402,0.06383447349071503,-0.07952036708593369
2161940,0.99810791015625,-0.038818359375,-0.0333251953125,0.032470703125,27,30,2109,-3,-2,1,-497,682,-6039,-120,190,-6092,0.0640033632516861,-0.07965400815010071,0.9946563243865967,-0.062434304505586624,0.06405412405729294,-0.07991140335798264
2172151,0.99810791015625,-0.03900146484375,-0.033447265625,0.03265380859375,28,30,2112,-3,-2,1,-498,685,-6036,-120,190,-6090,0.0642208680510521,-0.08003970235586166,0.9946458339691162,-0.06277652829885483,0.06426988542079926,-0.08029752969741821
2182146,0.99810791015625,-0.0391845703125,-0.03363037109375,0.0328369140625,29,32,2112,-3,-2,1,-499,690,-6036,-119,193,-6091,0.06456007808446884,-0.08042949438095093,0.9946312308311462,-0.06311383098363876,0.06460733711719513,-0.08068806678056717
2192129,0.99810791015625,-0.03936767578125,-0.03375244140625,0.032958984375,31,32,2110,-3,-2,1,-499,694,-6037,-118,195,-6092,0.06478212028741837,-0.0808112695813179,0.9946166276931763,-0.06333386152982712,0.06482785940170288,-0.08107058703899384
2202122,0.998046875,-0.03955078125,-0.033935546875,0.03314208984375,32,31,2108,-3,-2,1,-501,696,-6038,-118,194,-6093,0.06511694192886353,-0.08119645714759827,0.9944800734519958,-0.06368234008550644,0.06516879796981812,-0.0814664363861084
2212122,0.998046875,-0.03973388671875,-0.0340576171875,0.0333251953125,31,31,2112,-3,-2,1,-504,699,-6034,-120,195,-6090,0.06533391773700714,-0.08158251643180847,0.994469404220581,-0.06402404606342316,0.06538397073745728,-0.08185293525457382
2221710,0.998046875,-0.0399169921875,-0.03424072265625,0.03350830078125,30,30,2113,-3,-2,1,-507,701,-6033,-121,195,-6090,0.06567259132862091,-0.08197275549173355,0.9944546222686768,-0.06436076760292053,0.06572079658508301,-0.08224392682313919
2231733,0.99798583984375,-0.04010009765625,-0.03436279296875,0.03369140625,28,31,2110,-3,-2,1,-511,705,-6035,-123,196,-6092,0.06588510423898697,-0.0823541209101677,0.9943220019340515,-0.06471387296915054,0.06593949347734451,-0.0826357826590538
2241756,0.99798583984375,-0.040283203125,-0.03448486328125,0.03387451171875,29,30,2107,-3,-2,1,-512,707,-6038,-123,195,-6095,0.06610166281461716,-0.08274044841527939,0.9943112730979919,-0.06505522131919861,0.06615419685840607,-0.08302254974842072
2251784,0.99798583984375,-0.04046630859375,-0.03460693359375,0.03399658203125,29,30,2109,-3,-2,1,-514,710,-6036,-124,196,-6094,0.06632302701473236,-0.08312264084815979,0.9942963719367981,-0.06527455151081085,0.06637395918369293,-0.0834055170416832
2262008,0.9979248046875,-0.0406494140625,-0.03472900390625,0.0341796875,30,30,2108,-3,-2,1,-515,714,-6036,-124,197,-6094,0.0665351003408432,-0.08350417017936707,0.9941636919975281,-0.06562749296426773,0.0665922537446022,-0.08379769325256348
2272008,0.9979248046875,-0.04083251953125,-0.034912109375,0.03436279296875,31,32,2107,-3,-2,1,-516,719,-6037,-123,200,-6096,0.06687308102846146,-0.08389492332935333,0.9941485524177551,-0.06596352159976959,0.06692832708358765,-0.08418924361467361
2282004,0.9979248046875,-0.041015625,-0.0350341796875,0.0345458984375,29,32,2111,-3,-2,1,-520,722,-6032,-126,201,-6092,0.06708911061286926,-0.08428159356117249,0.9941376447677612,-0.06630439311265945,0.06714243441820145,-0.08457636088132858
2291981,0.9979248046875,-0.04119873046875,-0.03515625,0.03472900390625,30,31,2112,-3,-2,1,-521,724,-6031,-126,200,-6091,0.06730500608682632,-0.0846683531999588,0.9941266775131226,-0.06664511561393738,0.06735637784004211,-0.08496353775262833
2301968,0.99786376953125,-0.0413818359375,-0.03533935546875,0.03485107421875,29,32,2113,-3,-2,1,-525,728,-6029,-128,202,-6090,0.06764332205057144,-0.08505009859800339,0.9939854145050049,-0.06687086075544357,0.06770125031471252,-0.08535683155059814
2311964,0.99786376953125,-0.04156494140625,-0.03546142578125,0.0350341796875,30,31,2113,-3,-2,1,-525,730,-6029,-127,202,-6090,0.06785895675420761,-0.08543702214956284,0.9939743280410767,-0.06721136718988419,0.06791491061449051,-0.08574420213699341
2321954,0.99786376953125,-0.041748046875,-0.03558349609375,0.03521728515625,29,31,2114,-3,-2,1,-528,734,-6028,-128,203,-6090,0.06807445734739304,-0.08582403510808945,0.9939633011817932,-0.06755173951387405,0.06812840700149536,-0.08613164722919464
2331950,0.997802734375,-0.04193115234375,-0.0357666015625,0.035400390625,31,31,2113,-3,-2,1,-529,737,-6028,-127,204,-6090,0.06840726733207703,-0.08621034026145935,0.9938260316848755,-0.06789910793304443,0.06846752017736435,-0.08652930706739426
2341945,0.997802734375,-0.0421142578125,-0.035888671875,0.03558349609375,29,31,2111,-3,-2,1,-533,740,-6030,-130,204,-6093,0.06862248480319977,-0.08659753203392029,0.9938148856163025,-0.0682392492890358,0.06868071109056473,-0.08691694587469101
2351940,0.997802734375,-0.04229736328125,-0.0360107421875,0.0357666015625,31,32,2109,-3,-2,1,-532,744,-6032,-128,206,-6095,0.06883756816387177,-0.08698481321334839,0.9938036799430847,-0.06857924908399582,0.06889375299215317,-0.08730465918779373
2361527,0.99774169921875,-0.04248046875,-0.03619384765625,0.035888671875,29,30,2110,-3,-2,1,-537,745,-6030,-131,204,-6094,0.06917508691549301,-0.0873669683933258,0.9936619400978088,-0.06880448758602142,0.06923793256282806,-0.08769870549440384
2371553,0.99774169921875,-0.04266357421875,-0.03631591796875,0.03607177734375,30,29,2112,-3,-2,1,-538,747,-6027,-131,204,-6091,0.06938990950584412,-0.08775441348552704,0.9936506152153015,-0.06914426386356354,0.06945067644119263,-0.08808661997318268
2381571,0.99774169921875,-0.0428466796875,-0.03643798828125,0.0362548828125,30,30,2112,-3,-2,1,-540,752,-6027,-132,207,-6092,0.06960459798574448,-0.08814194798469543,0.993639349937439,-0.0694839134812355,0.06966325640678406,-0.08847460150718689
2391596,0.9976806640625,-0.04302978515625,-0.03662109375,0.036376953125,29,29,2111,-3,-2,1,-543,754,-6027,-133,206,-6092,0.06994172930717468,-0.08852429687976837,0.9934973120689392,-0.06970889866352081,0.07000711560249329,-0.08886902034282684
2401620,0.9976806640625,-0.043212890625,-0.0367431640625,0.03656005859375,29,29,2113,-3,-2,1,-545,757,-6025,-134,207,-6091,0.07015615701675415,-0.0889119952917099,0.9934859275817871,-0.07004830986261368,0.07021940499544144,-0.08925718069076538
2411837,0.9976806640625,-0.04339599609375,-0.036865234375,0.0367431640625,30,32,2114,-3,-2,1,-546,763,-6024,-134,210,-6091,0.07037045061588287,-0.08929978311061859,0.9934744834899902,-0.0703875944018364,0.07043155282735825,-0.08964542299509048
2421827,0.9976806640625,-0.04351806640625,-0.03704833984375,0.03692626953125,29,32,2110,-3,-2,1,-550,765,-6028,-135,210,-6096,0.07071090489625931,-0.08957038074731827,0.9934638738632202,-0.07072670012712479,0.07077019661664963,-0.08991656452417374
2431822,0.99761962890625,-0.043701171875,-0.03717041015625,0.037109375,29,31,2113,-3,-2,1,-551,767,-6024,-135,210,-6091,0.0709204152226448,-0.08995303511619568,0.9933305978775024,-0.07107852399349213,0.07098615169525146,-0.09031066298484802
2441801,0.99761962890625,-0.04388427734375,-0.03729248046875,0.0372314453125,29,32,2110,-3,-2,1,-553,772,-6027,-136,212,-6095,0.07113967090845108,-0.09033653885126114,0.9933145046234131,-0.0712955966591835,0.07120354473590851,-0.09069505333900452
2451781,0.99761962890625,-0.0440673828125,-0.03741455078125,0.03741455078125,28,33,2110,-3,-2,1,-556,776,-6027,-138,214,-6096,0.07135345786809921,-0.09072466939687729,0.9933030009269714,-0.07163440436124802,0.07141511142253876,-0.09108362346887589
2461765,0.99755859375,-0.044189453125,-0.03759765625,0.03759765625,28,32,2110,-3,-2,1,-559,777,-6026,-139,213,-6095,0.07168889045715332,-0.09099030494689941,0.993170440196991,-0.07198601216077805,0.07175740599632263,-0.09136096388101578
2471744,0.99755859375,-0.04437255859375,-0.0377197265625,0.03778076171875,29,33,2109,-3,-2,1,-560,781,-6026,-139,215,-6096,0.07190241664648056,-0.09137861430644989,0.9931588768959045,-0.07232460379600525,0.071968674659729,-0.09174973517656326
2481740,0.99755859375,-0.0445556640625,-0.03790283203125,0.0379638671875,28,34,2107,-3,-2,1,-563,785,-6028,-140,216,-6099,0.07223758101463318,-0.09177164733409882,0.9931425452232361,-0.07265760749578476,0.07230155169963837,-0.09214363992214203
2491732,0.99749755859375,-0.04473876953125,-0.03802490234375,0.0380859375,28,35,2107,-3,-2,1,-565,789,-6027,-141,218,-6098,0.07245165854692459,-0.09215005487203598,0.9930044412612915,-0.07288720458745956,0.07252250611782074,-0.09253422170877457
2501726,0.99749755859375,-0.044921875,-0.03814697265625,0.03826904296875,30,34,2107,-3,-2,1,-565,792,-6027,-140,218,-6099,0.0726647898554802,-0.09253861755132675,0.9929927587509155,-0.07322542369365692,0.0727333202958107,-0.09292324632406235
2511716,0.99749755859375,-0.0450439453125,-0.03826904296875,0.0384521484375,30,33,2109,-3,-2,1,-567,793,-6025,-140,218,-6097,0.07288248091936111,-0.09280550479888916,0.9929864406585693,-0.07356899976730347,0.07294910401105881,-0.09319029003381729
2521709,0.9974365234375,-0.04522705078125,-0.0384521484375,0.03857421875,31,32,2108,-3,-2,1,-568,795,-6025,-139,217,-6097,0.0732179582118988,-0.09318874776363373,0.992843508720398,-0.07379291206598282,0.07329148799180984,-0.0935862809419632
2531709,0.9974365234375,-0.04541015625,-0.03857421875,0.03875732421875,31,32,2108,-3,-2,1,-570,798,-6025,-140,218,-6098,0.07343071699142456,-0.0935775637626648,0.9928317070007324,-0.07413078844547272,0.07350189238786697,-0.09397557377815247
2541709,0.9974365234375,-0.04559326171875,-0.0386962890625,0.0389404296875,30,32,2108,-3,-2,1,-573,801,-6025,-142,218,-6099,0.07364334166049957,-0.09396646916866302,0.9928197860717773,-0.07446852326393127,0.07371213287115097,-0.0943649485707283
2551296,0.99737548828125,-0.0457763671875,-0.038818359375,0.03912353515625,29,33,2109,-3,-2,1,-575,805,-6023,-143,220,-6097,0.0738510936498642,-0.09434987604618073,0.9926862120628357,-0.07481959462165833,0.07392647117376328,-0.09476035833358765
2561316,0.99737548828125,-0.04595947265625,-0.0389404296875,0.039306640625,31,34,2110,-3,-2,1,-575,810,-6021,-142,223,-6096,0.07406343519687653,-0.09473893791437149,0.9926742911338806,-0.07515711337327957,0.0741363987326622,-0.09514990448951721
2571344,0.99737548828125,-0.04608154296875,-0.0390625,0.0394287109375,31,34,2110,-3,-2,1,-577,812,-6021,-143,223,-6096,0.074286088347435,-0.09500157088041306,0.9926630854606628,-0.07537829130887985,0.07435742765665054,-0.09541314840316772
2581376,0.997314453125,-0.0462646484375,-0.0391845703125,0.03961181640625,30,35,2110,-3,-2,1,-580,816,-6020,-145,225,-6096,0.0744934231042862,-0.09538514912128448,0.9925293922424316,-0.07572921365499496,0.07457137852907181,-0.09580886363983154
2591400,0.997314453125,-0.04644775390625,-0.03936767578125,0.039794921875,29,34,2109,-3,-2,1,-583,818,-6021,-146,224,-6097,0.07482713460922241,-0.09577929973602295,0.9925125241279602,-0.07606072723865509,0.07490261644124985,-0.09620396047830582
2601616,0.997314453125,-0.046630859375,-0.03948974609375,0.03997802734375,28,34,2109,-3,-2,1,-586,821,-6021,-148,224,-6098,0.07503896951675415,-0.09616870433092117,0.9925004839897156,-0.07639774680137634,0.07511196285486221,-0.09659382700920105
2611607,0.997314453125,-0.0467529296875,-0.03961181640625,0.0401611328125,29,32,2110,-3,-2,1,-587,822,-6020,-147,224,-6098,0.07525557279586792,-0.09643645584583282,0.9924941062927246,-0.07674034684896469,0.07532649487257004,-0.09686170518398285
2621603,0.99725341796875,-0.04693603515625,-0.03973388671875,0.040283203125,30,33,2111,-3,-2,1,-588,826,-6018,-147,226,-6096,0.0754680410027504,-0.09681545943021774,0.9923553466796875,-0.07696918398141861,0.07554600387811661,-0.09725350141525269
2631181,0.99725341796875,-0.047119140625,-0.03985595703125,0.04046630859375,27,33,2112,-3,-2,1,-592,829,-6017,-150,226,-6096,0.07567950338125229,-0.09720509499311447,0.9923431873321533,-0.0773058757185936,0.07575491815805435,-0.09764361381530762
2641212,0.99725341796875,-0.0472412109375,-0.03997802734375,0.0406494140625,30,32,2115,-3,-2,1,-591,830,-6014,-148,226,-6093,0.07589579373598099,-0.09747308492660522,0.9923368096351624,-0.07764821499586105,0.07596909254789352,-0.09791172295808792
2651239,0.9971923828125,-0.04742431640625,-0.04010009765625,0.04083251953125,29,31,2112,-3,-2,1,-594,832,-6016,-150,225,-6095,0.076102115213871,-0.09785711020231247,0.992202877998352,-0.07799870520830154,0.07618209719657898,-0.09830817580223083
2661240,0.9971923828125,-0.047607421875,-0.040283203125,0.04095458984375,28,32,2112,-3,-2,1,-598,836,-6015,-152,226,-6095,0.0764407217502594,-0.09824708104133606,0.9921807050704956,-0.07820744812488556,0.07651849836111069,-0.09869960695505142
2671268,0.9971923828125,-0.0477294921875,-0.0404052734375,0.0411376953125,29,31,2111,-3,-2,1,-598,838,-6016,-151,227,-6097,0.07665669918060303,-0.0985153317451477,0.9921742677688599,-0.07854949682950974,0.07673231512308121,-0.09896797686815262
2681491,0.99713134765625,-0.04791259765625,-0.04052734375,0.04132080078125,29,32,2111,-3,-2,1,-600,842,-6015,-152,228,-6096,0.07686259597539902,-0.09889955073595047,0.9920402765274048,-0.07889978587627411,0.07694491744041443,-0.0993647649884224
2691487,0.99713134765625,-0.048095703125,-0.0406494140625,0.04150390625,28,33,2112,-3,-2,1,-603,846,-6014,-154,230,-6096,0.07707329094409943,-0.09928968548774719,0.9920279383659363,-0.07923578470945358,0.07715296745300293,-0.09975537657737732
2701476,0.99713134765625,-0.0482177734375,-0.040771484375,0.0416259765625,31,33,2111,-3,-2,1,-602,848,-6015,-151,230,-6097,0.07729482650756836,-0.09955321252346039,0.9920163750648499,-0.07945577800273895,0.077372707426548,-0.10001953691244125
2711472,0.9970703125,-0.04840087890625,-0.0408935546875,0.04180908203125,30,32,2113,-3,-2,1,-604,850,-6012,-152,230,-6094,0.07750030606985092,-0.09993760287761688,0.99188232421875,-0.0798058956861496,0.07758492976427078,-0.1004166230559349
2721450,0.9970703125,-0.048583984375,-0.041015625,0.0419921875,30,32,2114,-3,-2,1,-606,853,-6011,-153,231,-6094,0.07771062850952148,-0.10032796859741211,0.9918698668479919,-0.08014155179262161,0.07779254764318466,-0.10080746561288834
2731449,0.9970703125,-0.04876708984375,-0.0411376953125,0.04217529296875,30,32,2113,-3,-2,1,-608,857,-6012,-154,232,-6096,0.0779208168387413,-0.1007184237241745,0.9918574690818787,-0.08047708123922348,0.07800000160932541,-0.10119837522506714
2741449,0.99700927734375,-0.04888916015625,-0.04132080078125,0.0423583984375,30,32,2113,-3,-2,1,-611,859,-6011,-155,232,-6095,0.07825271040201187,-0.10098645836114883,0.9917241334915161,-0.08082704991102219,0.07833913713693619,-0.10147939622402191
2751426,0.99700927734375,-0.049072265625,-0.04144287109375,0.04254150390625,31,31,2112,-3,-2,1,-611,861,-6012,-154,232,-6097,0.0784626379609108,-0.10137709230184555,0.9917116761207581,-0.08116233348846436,0.07854629307985306,-0.10187049955129623
2761426,0.9969482421875,-0.04925537109375,-0.04156494140625,0.042724609375,30,30,2109,-3,-2,1,-614,863,-6014,-155,231,-6099,0.07866735756397247,-0.10176180303096771,0.9915774464607239,-0.08151216804981232,0.07875780761241913,-0.10226814448833466
2771008,0.9969482421875,-0.04937744140625,-0.04168701171875,0.04290771484375,29,31,2107,-3,-2,1,-617,866,-6015,-157,232,-6101,0.07888223975896835,-0.10203089565038681,0.9915708899497986,-0.08185331523418427,0.07897038757801056,-0.1025373563170433
2781033,0.9969482421875,-0.049560546875,-0.04180908203125,0.04302978515625,31,33,2108,-3,-2,1,-616,871,-6014,-155,235,-6101,0.07909782230854034,-0.10241667181253433,0.9915530681610107,-0.08206649124622345,0.07918358594179153,-0.1029241681098938
2791057,0.99688720703125,-0.04974365234375,-0.04193115234375,0.043212890625,28,33,2107,-3,-2,1,-621,875,-6014,-159,236,-6101,0.07930212467908859,-0.10280155390501022,0.9914188385009766,-0.08241613954305649,0.07939469814300537,-0.1033221036195755
2801085,0.99688720703125,-0.04986572265625,-0.04205322265625,0.0433349609375,30,33,2107,-3,-2,1,-621,877,-6014,-158,237,-6102,0.07952278107404709,-0.10306575149297714,0.9914069771766663,-0.08263524621725082,0.07961345463991165,-0.10358697175979614
2811113,0.99688720703125,-0.050048828125,-0.04217529296875,0.04351806640625,28,33,2110,-3,-2,1,-625,880,-6011,-161,237,-6100,0.07973196357488632,-0.10345684736967087,0.9913942813873291,-0.08296985924243927,0.07981976121664047,-0.10397854447364807
2821315,0.996826171875,-0.05023193359375,-0.04229736328125,0.043701171875,28,32,2110,-3,-2,1,-626,882,-6010,-161,237,-6099,0.07993584871292114,-0.10384190082550049,0.9912598729133606,-0.08331933617591858,0.08003048598766327,-0.10437679290771484
2831307,0.996826171875,-0.05035400390625,-0.04248046875,0.04388427734375,29,33,2110,-3,-2,1,-628,885,-6010,-161,238,-6099,0.08027178794145584,-0.10411682724952698,0.9912481307983398,-0.08365378528833389,0.08036401122808456,-0.10465235263109207
2841299,0.996826171875,-0.050537109375,-0.0426025390625,0.0440673828125,28,33,2109,-3,-2,1,-631,889,-6011,-163,239,-6102,0.08048057556152344,-0.10450819134712219,0.9912353754043579,-0.08398802578449249,0.08056986331939697,-0.10504418611526489
2851293,0.99676513671875,-0.0506591796875,-0.042724609375,0.04425048828125,29,32,2108,-3,-2,1,-632,890,-6011,-162,239,-6101,0.08068941533565521,-0.10477177798748016,0.991107165813446,-0.0843435749411583,0.0807860866189003,-0.10532069951295853
2861288,0.99676513671875,-0.05084228515625,-0.0428466796875,0.04437255859375,27,32,2108,-3,-2,1,-635,893,-6011,-164,239,-6102,0.08090414851903915,-0.10515806823968887,0.9910889267921448,-0.08455584943294525,0.08099831640720367,-0.1057080626487732
2871286,0.99676513671875,-0.05096435546875,-0.04296875,0.0445556640625,27,33,2106,-3,-2,1,-637,896,-6012,-165,240,-6104,0.08111800253391266,-0.10542798787355423,0.9910822510719299,-0.08489605784416199,0.0812097042798996,-0.10597807914018631
2880866,0.9967041015625,-0.0511474609375,-0.0430908203125,0.04473876953125,28,33,2109,-3,-2,1,-638,899,-6008,-165,241,-6100,0.08132104575634003,-0.10581342875957489,0.9909477829933167,-0.08524519205093384,0.08141963183879852,-0.10637693852186203
2890894,0.9967041015625,-0.05133056640625,-0.043212890625,0.044921875,27,33,2110,-3,-2,1,-640,903,-6007,-166,243,-6100,0.08152920007705688,-0.10620518028736115,0.9909348487854004,-0.08557888120412827,0.08162476122379303,-0.10676918178796768
2900905,0.9967041015625,-0.051513671875,-0.0433349609375,0.0450439453125,28,33,2110,-3,-2,1,-641,906,-6007,-166,243,-6101,0.0817435085773468,-0.10659173130989075,0.9909164309501648,-0.08579069375991821,0.08183649927377701,-0.10715679824352264
2910930,0.99664306640625,-0.0516357421875,-0.04351806640625,0.04522705078125,30,31,2111,-3,-2,1,-642,906,-6005,-165,242,-6099,0.08207329362630844,-0.10686119645833969,0.9907828569412231,-0.08613969385623932,0.08217370510101318,-0.10743998736143112
2920956,0.99664306640625,-0.05181884765625,-0.04364013671875,0.04541015625,30,32,2110,-3,-2,1,-644,910,-6006,-166,243,-6101,0.08228107541799545,-0.10725320130586624,0.9907698035240173,-0.0864730179309845,0.08237840235233307,-0.10783248394727707
2931166,0.99664306640625,-0.05194091796875,-0.04376220703125,0.04559326171875,28,32,2111,-3,-2,1,-647,912,-6005,-168,243,-6100,0.08249428868293762,-0.10752363502979279,0.9907631278038025,-0.08681263774633408,0.0825890451669693,-0.10810299217700958
2941158,0.99658203125,-0.0521240234375,-0.04388427734375,0.04571533203125,28,34,2113,-3,-2,1,-649,917,-6002,-169,246,-6098,0.08270283043384552,-0.1079040989279747,0.9906229376792908,-0.08703965693712234,0.08280500024557114,-0.1084977462887764
2951158,0.99658203125,-0.05224609375,-0.04400634765625,0.0458984375,29,34,2114,-3,-2,1,-650,920,-6001,-169,247,-6098,0.08291584253311157,-0.10817468166351318,0.9906162023544312,-0.08737912774085999,0.08301541954278946,-0.10876841843128204
2961158,0.99658203125,-0.05242919921875,-0.04412841796875,0.04608154296875,30,34,2114,-3,-2,1,-650,923,-6001,-168,248,-6098,0.08312314003705978,-0.1085670068860054,0.9906030893325806,-0.08771197497844696,0.08321955054998398,-0.10916120558977127
2971158,0.99652099609375,-0.05255126953125,-0.04425048828125,0.0462646484375,30,34,2113,-3,-2,1,-652,925,-6000,-169,248,-6097,0.08333054929971695,-0.10883135348558426,0.9904747009277344,-0.08806706219911575,0.08343446999788284,-0.109438955783844
2980747,0.99652099609375,-0.05267333984375,-0.04437255859375,0.04644775390625,30,34,2113,-3,-2,1,-654,927,-6000,-170,249,-6098,0.08354325592517853,-0.10910218954086304,0.9904680848121643,-0.0884062722325325,0.08364453166723251,-0.10970985144376755
2990772,0.99652099609375,-0.0528564453125,-0.04449462890625,0.04656982421875,32,32,2114,-3,-2,1,-654,928,-5999,-168,247,-6098,0.08375663310289383,-0.1094893291592598,0.9904493093490601,-0.08861708641052246,0.08385516703128815,-0.11009809374809265
3000788,0.9964599609375,-0.052978515625,-0.04461669921875,0.0467529296875,31,33,2111,-3,-2,1,-656,932,-6001,-169,249,-6100,0.08396370708942413,-0.10975386202335358,0.9903208613395691,-0.0889720767736435,0.08406978100538254,-0.11037613451480865
3010814,0.9964599609375,-0.05316162109375,-0.04473876953125,0.04693603515625,30,34,2108,-3,-2,1,-659,936,-6004,-171,250,-6104,0.0841703936457634,-0.11014657467603683,0.9903076887130737,-0.08930439502000809,0.08427321165800095,-0.11076932400465012
3020840,0.99639892578125,-0.0533447265625,-0.04486083984375,0.047119140625,32,33,2111,-3,-2,1,-659,938,-6000,-170,250,-6100,0.08437146991491318,-0.11053286492824554,0.9901729226112366,-0.08965267986059189,0.08448126912117004,-0.11116961389780045
3031057,0.99639892578125,-0.053466796875,-0.04498291015625,0.04730224609375,31,32,2111,-3,-2,1,-661,939,-6000,-171,250,-6100,0.08458364754915237,-0.11080410331487656,0.990166187286377,-0.08999142795801163,0.08469072729349136,-0.11144091933965683
3041057,0.99639892578125,-0.05364990234375,-0.04510498046875,0.04742431640625,30,31,2113,-3,-2,1,-664,941,-5998,-173,249,-6099,0.0847964882850647,-0.11119155585765839,0.9901471138000488,-0.09020169079303741,0.08490075916051865,-0.1118294969201088
3051057,0.996337890625,-0.05377197265625,-0.04522705078125,0.047607421875,31,31,2114,-3,-2,1,-665,944,-5996,-173,251,-6097,0.08500295877456665,-0.11145639419555664,0.9900187253952026,-0.09055651724338531,0.08511482924222946,-0.11210804432630539
3060646,0.996337890625,-0.053955078125,-0.04534912109375,0.04779052734375,30,33,2113,-3,-2,1,-668,949,-5997,-175,253,-6100,0.08520901203155518,-0.11184949427843094,0.9900054335594177,-0.09088826179504395,0.08531752228736877,-0.11250162124633789
3070674,0.996337890625,-0.0540771484375,-0.04547119140625,0.0479736328125,31,32,2115,-3,-2,1,-668,950,-5995,-173,253,-6098,0.08542078733444214,-0.11212106049060822,0.9899986982345581,-0.09122662991285324,0.08552650362253189,-0.11277322471141815
3080684,0.99627685546875,-0.05426025390625,-0.04559326171875,0.048095703125,28,35,2113,-3,-2,1,-673,956,-5995,-177,256,-6099,0.08562765270471573,-0.11250215023756027,0.9898578524589539,-0.09145287424325943,0.08574091643095016,-0.11316923052072525
3090706,0.99627685546875,-0.05438232421875,-0.04571533203125,0.04827880859375,29,35,2112,-3,-2,1,-674,958,-5996,-177,256,-6101,0.08583922684192657,-0.11277386546134949,0.9898510575294495,-0.091791070997715,0.08594967424869537,-0.11344099789857864
3100717,0.99627685546875,-0.0545654296875,-0.04583740234375,0.0484619140625,29,35,2110,-3,-2,1,-675,962,-5998,-177,257,-6103,0.0860447958111763,-0.11316728591918945,0.9898377060890198,-0.09212235361337662,0.08615179359912872,-0.11383486539125443
3110931,0.9962158203125,-0.0546875,-0.04595947265625,0.04864501953125,31,36,2110,-3,-2,1,-675,965,-5997,-176,259,-6102,0.08625055849552155,-0.11343250423669815,0.9897093176841736,-0.09247695654630661,0.08636519312858582,-0.11411401629447937
3120931,0.9962158203125,-0.05487060546875,-0.04608154296875,0.048828125,31,36,2112,-3,-2,1,-677,968,-5995,-177,259,-6101,0.08645586669445038,-0.11382608115673065,0.9896957874298096,-0.09280800074338913,0.08656702190637589,-0.11450805515050888
3130925,0.9962158203125,-0.05499267578125,-0.04620361328125,0.0489501953125,28,34,2112,-3,-2,1,-682,968,-5995,-181,257,-6102,0.08667373657226562,-0.11409249901771545,0.9896830320358276,-0.09302414953708649,0.0867825374007225,-0.11477519571781158
3140913,0.99615478515625,-0.05511474609375,-0.04632568359375,0.04913330078125,28,34,2112,-3,-2,1,-683,970,-5994,-181,258,-6101,0.08687916398048401,-0.11435790359973907,0.989554762840271,-0.09337864071130753,0.08699561655521393,-0.11505462229251862
3150891,0.99615478515625,-0.0552978515625,-0.04644775390625,0.04931640625,29,32,2112,-3,-2,1,-684,972,-5994,-180,257,-6102,0.08708412200212479,-0.11475171148777008,0.989541232585907,-0.09370936453342438,0.08719703555107117,-0.11544888466596603
3160880,0.99609375,-0.055419921875,-0.0465087890625,0.04949951171875,30,33,2112,-3,-2,1,-684,975,-5993,-180,259,-6101,0.08716771006584167,-0.11501120030879974,0.9894185662269592,-0.09407056868076324,0.08728832751512527,-0.11572185158729553
3170865,0.99609375,-0.05560302734375,-0.046630859375,0.0496826171875,29,32,2111,-3,-2,1,-686,977,-5994,-181,258,-6103,0.08737240731716156,-0.1154051423072815,0.9894049763679504,-0.09440109878778458,0.08748946338891983,-0.11611626297235489
3180849,0.99609375,-0.05572509765625,-0.0467529296875,0.04986572265625,28,32,2111,-3,-2,1,-689,979,-5994,-183,258,-6104,0.08758305758237839,-0.11567758023738861,0.9893982410430908,-0.09473847597837448,0.08769713342189789,-0.11638869345188141
3190846,0.99603271484375,-0.055908203125,-0.046875,0.04998779296875,30,32,2113,-3,-2,1,-689,982,-5990,-182,259,-6100,0.08778861165046692,-0.11605915427207947,0.9892569780349731,-0.09496414661407471,0.08791031688451767,-0.11678566038608551
3200837,0.99603271484375,-0.0560302734375,-0.0469970703125,0.0501708984375,29,31,2114,-3,-2,1,-691,983,-5989,-183,258,-6099,0.08799906075000763,-0.11633174121379852,0.9892501831054688,-0.09530136734247208,0.08811777085065842,-0.11705825477838516
3210827,0.99603271484375,-0.05621337890625,-0.047119140625,0.05035400390625,27,30,2115,-3,-2,1,-695,986,-5988,-186,259,-6099,0.08820327371358871,-0.11672600358724594,0.9892365336418152,-0.09563140571117401,0.08831831812858582,-0.1174529567360878
3220823,0.9959716796875,-0.05633544921875,-0.0472412109375,0.05047607421875,28,30,2113,-3,-2,1,-696,988,-5989,-185,259,-6100,0.08841463178396225,-0.11698612570762634,0.9891020059585571,-0.09586398303508759,0.08853796124458313,-0.11772815138101578
3230810,0.9959716796875,-0.0565185546875,-0.04736328125,0.0506591796875,28,31,2111,-3,-2,1,-697,992,-5991,-185,260,-6103,0.08861860632896423,-0.1173805296421051,0.9890882968902588,-0.0961938127875328,0.08873824775218964,-0.11812300235033035
3240792,0.99591064453125,-0.056640625,-0.0474853515625,0.05084228515625,28,32,2110,-3,-2,1,-699,995,-5991,-186,261,-6104,0.0888228565454483,-0.11764653027057648,0.9889599680900574,-0.09654797613620758,0.08895023167133331,-0.11840341985225677
3250776,0.99591064453125,-0.05682373046875,-0.047607421875,0.051025390625,29,31,2107,-3,-2,1,-700,997,-5994,-185,261,-6107,0.0890265703201294,-0.11804109066724777,0.9889461994171143,-0.0968775749206543,0.08915022015571594,-0.11879843473434448
3260759,0.99591064453125,-0.05694580078125,-0.0477294921875,0.05120849609375,27,32,2105,-3,-2,1,-704,1001,-5996,-188,262,-6110,0.08923640102148056,-0.11831416934728622,0.9889394044876099,-0.0972142219543457,0.08935694396495819,-0.11907148361206055
3270751,0.995849609375,-0.05706787109375,-0.0478515625,0.05133056640625,27,34,2107,-3,-2,1,-705,1005,-5993,-188,265,-6108,0.0894472673535347,-0.11857452988624573,0.9888047575950623,-0.09744665771722794,0.08957615494728088,-0.11934713274240494
3280740,0.995849609375,-0.0572509765625,-0.0479736328125,0.051513671875,28,33,2107,-3,-2,1,-706,1007,-5993,-188,264,-6108,0.08965063095092773,-0.11896932125091553,0.9887909889221191,-0.09777592867612839,0.08977572619915009,-0.11974236369132996
3290732,0.995849609375,-0.057373046875,-0.048095703125,0.05169677734375,29,33,2108,-3,-2,1,-707,1009,-5992,-188,265,-6108,0.08986017107963562,-0.11924263834953308,0.98878413438797,-0.09811230003833771,0.08998209983110428,-0.12001565098762512
3300728,0.99578857421875,-0.0574951171875,-0.0482177734375,0.0518798828125,28,33,2108,-3,-2,1,-709,1012,-5991,-189,266,-6107,0.09006373584270477,-0.1195090264081955,0.9886558055877686,-0.09846624732017517,0.09019343554973602,-0.1202966496348381
3310719,0.99578857421875,-0.05767822265625,-0.04827880859375,0.05206298828125,30,32,2109,-3,-2,1,-708,1014,-5990,-188,266,-6107,0.09014517068862915,-0.11989770829677582,0.9886478781700134,-0.09880220144987106,0.09027104824781418,-0.12068507820367813
3320307,0.9957275390625,-0.05780029296875,-0.04840087890625,0.05218505859375,31,32,2111,-3,-2,1,-709,1016,-5986,-188,267,-6103,0.09035555273294449,-0.12015829235315323,0.9885130524635315,-0.09903449565172195,0.09048983454704285,-0.12096115946769714
3330328,0.9957275390625,-0.05792236328125,-0.04852294921875,0.0523681640625,29,32,2112,-3,-2,1,-712,1018,-5985,-190,267,-6103,0.09056469798088074,-0.12043190002441406,0.9885061979293823,-0.0993705615401268,0.09069576859474182,-0.12123473733663559
3340349,0.9957275390625,-0.05810546875,-0.04864501953125,0.05255126953125,30,33,2114,-3,-2,1,-713,1022,-5983,-190,269,-6102,0.09076733887195587,-0.12082714587450027,0.9884923696517944,-0.09969916194677353,0.09089449048042297,-0.12163039296865463
3350376,0.99566650390625,-0.0582275390625,-0.04876708984375,0.052734375,29,32,2111,-3,-2,1,-716,1024,-5985,-192,268,-6104,0.09097032994031906,-0.12109382450580597,0.988364040851593,-0.10005295276641846,0.09110528230667114,-0.12191186845302582
3360400,0.99566650390625,-0.05841064453125,-0.04888916015625,0.05291748046875,29,31,2111,-3,-2,1,-717,1026,-5985,-192,268,-6105,0.0911727100610733,-0.12148922681808472,0.9883500933647156,-0.10038132220506668,0.09130370616912842,-0.12230770289897919
3370612,0.99566650390625,-0.05853271484375,-0.0489501953125,0.05303955078125,27,32,2111,-3,-2,1,-720,1029,-5985,-194,269,-6106,0.09126704186201096,-0.12175071984529495,0.988342821598053,-0.10060253739356995,0.09139539301395416,-0.12256922572851181
3380604,0.99560546875,-0.05865478515625,-0.049072265625,0.05322265625,28,30,2110,-3,-2,1,-721,1029,-5985,-194,267,-6105,0.09146970510482788,-0.12201756238937378,0.9882144331932068,-0.10095623880624771,0.09160587936639786,-0.12285096943378448
3390595,0.99560546875,-0.058837890625,-0.0491943359375,0.05340576171875,30,31,2109,-3,-2,1,-720,1033,-5986,-192,269,-6107,0.09167173504829407,-0.12241317331790924,0.9882004857063293,-0.10128428041934967,0.0918038934469223,-0.12324699014425278
3400592,0.99554443359375,-0.0589599609375,-0.04931640625,0.0535888671875,30,32,2110,-3,-2,1,-722,1036,-5984,-193,270,-6106,0.0918741524219513,-0.12268014252185822,0.9880720973014832,-0.10163792222738266,0.09201415628194809,-0.12352894246578217
3410571,0.99554443359375,-0.05908203125,-0.0494384765625,0.05377197265625,30,30,2108,-3,-2,1,-724,1037,-5986,-193,269,-6108,0.09208248555660248,-0.12295438349246979,0.9880653023719788,-0.10197325795888901,0.09221912920475006,-0.12380310893058777
3420568,0.99554443359375,-0.05926513671875,-0.049560546875,0.05389404296875,30,30,2108,-3,-2,1,-726,1040,-5986,-194,270,-6109,0.09229137748479843,-0.12334419041872025,0.9880446791648865,-0.10217937082052231,0.09242457896471024,-0.12419416010379791
3430569,0.9954833984375,-0.05938720703125,-0.0496826171875,0.0540771484375,29,31,2108,-3,-2,1,-728,1043,-5985,-195,271,-6108,0.0924934595823288,-0.12361134588718414,0.9879162907600403,-0.10253290086984634,0.09263452142477036,-0.12447638809680939
3440568,0.9954833984375,-0.05950927734375,-0.04974365234375,0.05426025390625,29,31,2108,-3,-2,1,-729,1045,-5985,-196,271,-6109,0.09257998317480087,-0.12387920171022415,0.987915575504303,-0.1028752326965332,0.09271766245365143,-0.12474343180656433
3450150,0.9954833984375,-0.0596923828125,-0.04986572265625,0.05438232421875,29,30,2111,-3,-2,1,-731,1048,-5981,-197,272,-6106,0.09278857707977295,-0.12426917999982834,0.9878948926925659,-0.10308104753494263,0.09292276203632355,-0.1251346468925476
3460176,0.99542236328125,-0.059814453125,-0.04998779296875,0.0545654296875,31,29,2112,-3,-2,1,-730,1049,-5979,-195,272,-6104,0.09299033135175705,-0.12453649938106537,0.9877665042877197,-0.10343444347381592,0.093132384121418,-0.12541714310646057
3470194,0.99542236328125,-0.0599365234375,-0.05010986328125,0.05474853515625,31,32,2110,-3,-2,1,-732,1054,-5981,-196,275,-6107,0.09319808334112167,-0.12481119483709335,0.9877597093582153,-0.10376924276351929,0.09333666414022446,-0.1256917268037796
3480219,0.995361328125,-0.06005859375,-0.05023193359375,0.054931640625,32,31,2115,-3,-2,1,-733,1055,-5975,-196,274,-6101,0.09339961409568787,-0.12507864832878113,0.9876313805580139,-0.10412262380123138,0.0935460776090622,-0.12597443163394928
3490227,0.995361328125,-0.06024169921875,-0.05035400390625,0.05511474609375,31,30,2114,-3,-2,1,-735,1057,-5976,-197,274,-6103,0.09360044449567795,-0.12547501921653748,0.9876171946525574,-0.1044495701789856,0.09374270588159561,-0.12637120485305786
3500439,0.995361328125,-0.06036376953125,-0.0504150390625,0.0552978515625,29,28,2113,-3,-2,1,-738,1058,-5977,-199,273,-6105,0.09368638694286346,-0.12574321031570435,0.9876165390014648,-0.10479144006967545,0.09382516145706177,-0.1266385167837143
3510230,0.99530029296875,-0.06048583984375,-0.050537109375,0.055419921875,28,29,2111,-3,-2,1,-741,1061,-5978,-201,274,-6106,0.09389495849609375,-0.1260046660900116,0.9874815344810486,-0.10502317547798157,0.09404228627681732,-0.12691618502140045
3520432,0.99530029296875,-0.0606689453125,-0.0506591796875,0.05560302734375,27,29,2110,-3,-2,1,-743,1064,-5979,-202,274,-6108,0.09409543871879578,-0.12640124559402466,0.987467348575592,-0.10534978657960892,0.09423848986625671,-0.12731313705444336
3530426,0.9952392578125,-0.060791015625,-0.05078125,0.0557861328125,28,29,2109,-3,-2,1,-744,1066,-5979,-202,274,-6108,0.094296395778656,-0.1266689896583557,0.9873389601707458,-0.10570300370454788,0.09444735199213028,-0.12759631872177124
3540426,0.9952392578125,-0.0609130859375,-0.0509033203125,0.05596923828125,29,29,2109,-3,-2,1,-745,1068,-5979,-202,274,-6109,0.09450344741344452,-0.12694422900676727,0.9873322248458862,-0.1060371920466423,0.09465082734823227,-0.12787142395973206
3550426,0.9952392578125,-0.06109619140625,-0.051025390625,0.05615234375,31,29,2110,-3,-2,1,-744,1072,-5978,-200,276,-6109,0.0947035551071167,-0.12734104692935944,0.9873179197311401,-0.106363445520401,0.09484658390283585,-0.12826862931251526
3560008,0.99517822265625,-0.06121826171875,-0.05108642578125,0.05633544921875,29,29,2110,-3,-2,1,-747,1074,-5977,-203,276,-6108,0.09478268027305603,-0.12760211527347565,0.9871958494186401,-0.10672400891780853,0.0949336588382721,-0.128544420003891
3570033,0.99517822265625,-0.06134033203125,-0.05120849609375,0.0565185546875,29,32,2113,-3,-2,1,-749,1079,-5974,-204,280,-6106,0.09498942643404007,-0.1278775930404663,0.9871890544891357,-0.10705791413784027,0.09513677656650543,-0.1288197636604309
3580057,0.9951171875,-0.06146240234375,-0.05133056640625,0.056640625,30,34,2115,-3,-2,1,-749,1083,-5970,-203,283,-6102,0.09519731998443604,-0.12813937664031982,0.9870539307594299,-0.10728946328163147,0.09535329043865204,-0.12909802794456482
3590085,0.9951171875,-0.0616455078125,-0.05145263671875,0.05682373046875,28,31,2112,-3,-2,1,-753,1083,-5973,-206,279,-6106,0.09539695084095001,-0.12853646278381348,0.9870396256446838,-0.10761530697345734,0.09554849565029144,-0.12949548661708832
3600307,0.9951171875,-0.061767578125,-0.05157470703125,0.0570068359375,29,31,2111,-3,-2,1,-754,1086,-5974,-206,281,-6108,0.09560340642929077,-0.12881217896938324,0.9870327711105347,-0.10794892907142639,0.09575126320123672,-0.12977105379104614
3610306,0.99505615234375,-0.0618896484375,-0.0516357421875,0.05718994140625,28,32,2111,-3,-2,1,-755,1089,-5973,-206,282,-6107,0.09568199515342712,-0.12907344102859497,0.986910879611969,-0.10830943286418915,0.09583782404661179,-0.13004717230796814
3620306,0.99505615234375,-0.06201171875,-0.0517578125,0.057373046875,28,33,2111,-3,-2,1,-757,1092,-5973,-207,283,-6108,0.09588825702667236,-0.12934929132461548,0.9869040846824646,-0.10864290595054626,0.09604036062955856,-0.13032285869121552
3630305,0.99505615234375,-0.0621337890625,-0.0518798828125,0.0574951171875,26,33,2111,-3,-2,1,-761,1094,-5973,-210,283,-6109,0.09610201418399811,-0.12961889803409576,0.9868903160095215,-0.10885477811098099,0.09625108540058136,-0.1305932253599167
3640301,0.9949951171875,-0.06231689453125,-0.05194091796875,0.05767822265625,26,33,2112,-3,-2,1,-761,1097,-5971,-210,284,-6107,0.09617326408624649,-0.1300017237663269,0.9867607355117798,-0.10920722037553787,0.09632956236600876,-0.13099154829978943
3650293,0.9949951171875,-0.06243896484375,-0.05206298828125,0.057861328125,27,33,2110,-3,-2,1,-762,1100,-5973,-210,285,-6110,0.09637923538684845,-0.13027779757976532,0.9867540001869202,-0.1095404252409935,0.09653174877166748,-0.13126742839813232
3660286,0.99493408203125,-0.06256103515625,-0.05218505859375,0.05804443359375,29,32,2111,-3,-2,1,-762,1101,-5971,-209,284,-6108,0.09657874703407288,-0.13054631650447845,0.9866258502006531,-0.10989322513341904,0.09673920273780823,-0.13155177235603333
3669873,0.99493408203125,-0.06268310546875,-0.05230712890625,0.05816650390625,28,31,2112,-3,-2,1,-764,1102,-5970,-210,284,-6108,0.09679217636585236,-0.13081616163253784,0.9866119623184204,-0.1101047694683075,0.09694956243038177,-0.1318223774433136
3679902,0.99493408203125,-0.06280517578125,-0.0523681640625,0.058349609375,28,30,2113,-3,-2,1,-765,1103,-5969,-210,283,-6107,0.09687642753124237,-0.1310853362083435,0.9866116046905518,-0.11044537276029587,0.09703002125024796,-0.13209053874015808
3689930,0.994873046875,-0.06292724609375,-0.052490234375,0.05853271484375,29,30,2111,-3,-2,1,-766,1106,-5970,-210,284,-6108,0.09707563370466232,-0.13135403394699097,0.9864833950996399,-0.11079810559749603,0.09723719209432602,-0.13237515091896057
3699953,0.994873046875,-0.0631103515625,-0.0526123046875,0.0587158203125,29,30,2111,-3,-2,1,-767,1109,-5970,-210,284,-6109,0.09727397561073303,-0.1317519247531891,0.9864689707756042,-0.1111227497458458,0.09743087738752365,-0.13277336955070496
3710168,0.99481201171875,-0.063232421875,-0.052734375,0.05889892578125,31,30,2109,-3,-2,1,-767,1111,-5971,-209,285,-6110,0.09747293591499329,-0.1320207417011261,0.9863408207893372,-0.1114753931760788,0.09763780981302261,-0.13305816054344177
3720160,0.99481201171875,-0.0633544921875,-0.0528564453125,0.05902099609375,30,30,2113,-3,-2,1,-770,1113,-5966,-211,285,-6106,0.09768596291542053,-0.13229089975357056,0.9863268733024597,-0.11168652772903442,0.09784768521785736,-0.1333290934562683
3730158,0.99481201171875,-0.0634765625,-0.05291748046875,0.0592041015625,31,29,2112,-3,-2,1,-769,1114,-5967,-209,285,-6108,0.09776974469423294,-0.1325603574514389,0.9863265156745911,-0.11202677339315414,0.09792760014533997,-0.1335974931716919
3740158,0.9947509765625,-0.0635986328125,-0.05303955078125,0.05938720703125,33,30,2112,-3,-2,1,-769,1118,-5966,-209,287,-6107,0.09796839952468872,-0.13282933831214905,0.986198365688324,-0.11237934231758118,0.09813422709703445,-0.1338825523853302
3750160,0.9947509765625,-0.063720703125,-0.05316162109375,0.0595703125,31,31,2111,-3,-2,1,-773,1121,-5967,-211,288,-6109,0.09817342460155487,-0.13310617208480835,0.9861916303634644,-0.11271169036626816,0.09833530336618423,-0.1341591626405716
3759747,0.99468994140625,-0.0638427734375,-0.05322265625,0.0596923828125,32,31,2109,-3,-2,1,-772,1123,-5968,-210,288,-6110,0.09825822710990906,-0.13336150348186493,0.9860627055168152,-0.11295053362846375,0.09842889755964279,-0.13443078100681305
3769772,0.99468994140625,-0.06402587890625,-0.0533447265625,0.05987548828125,31,29,2110,-3,-2,1,-775,1124,-5967,-212,287,-6110,0.0984557643532753,-0.13375987112522125,0.9860482215881348,-0.11327444761991501,0.09862164407968521,-0.13482946157455444
3779794,0.99468994140625,-0.06414794921875,-0.053466796875,0.06005859375,31,30,2111,-3,-2,1,-777,1128,-5966,-213,289,-6110,0.09866049885749817,-0.13403692841529846,0.9860414266586304,-0.11360650509595871,0.09882237017154694,-0.13510626554489136
3789798,0.99462890625,-0.06427001953125,-0.05352783203125,0.06024169921875,29,31,2110,-3,-2,1,-779,1131,-5966,-215,290,-6110,0.0987371876835823,-0.13429886102676392,0.9859198331832886,-0.11396674811840057,0.09890710562467575,-0.13538357615470886
3799825,0.99462890625,-0.06439208984375,-0.05364990234375,0.0604248046875,30,31,2110,-3,-2,1,-780,1133,-5966,-215,290,-6111,0.09894172847270966,-0.13457603752613068,0.9859131574630737,-0.11429867893457413,0.09910760819911957,-0.13566046953201294
3809842,0.99456787109375,-0.06451416015625,-0.05377197265625,0.060546875,30,32,2110,-3,-2,1,-782,1136,-5965,-215,291,-6110,0.0991474911570549,-0.13483887910842896,0.9857776761054993,-0.11452959477901459,0.09932214766740799,-0.13594064116477966
3820057,0.99456787109375,-0.06463623046875,-0.0538330078125,0.06072998046875,27,31,2108,-3,-2,1,-785,1137,-5967,-218,290,-6113,0.09923044592142105,-0.13510878384113312,0.9857775568962097,-0.11486924439668655,0.0994010716676712,-0.1362094134092331
3830059,0.99456787109375,-0.06475830078125,-0.053955078125,0.0609130859375,28,32,2107,-3,-2,1,-786,1141,-5968,-218,292,-6115,0.09943471848964691,-0.13538619875907898,0.9857708215713501,-0.11520089954137802,0.09960126876831055,-0.13648656010627747
3840057,0.9945068359375,-0.06494140625,-0.0540771484375,0.06109619140625,28,33,2108,-3,-2,1,-788,1145,-5966,-219,294,-6114,0.09962484240531921,-0.13577716052532196,0.9856348633766174,-0.11554473638534546,0.09979856014251709,-0.13689444959163666
3849647,0.9945068359375,-0.0650634765625,-0.05413818359375,0.061279296875,29,33,2108,-3,-2,1,-787,1147,-5966,-218,294,-6114,0.09970749914646149,-0.13604724407196045,0.9856348037719727,-0.11588415503501892,0.09987714141607285,-0.13716335594654083
3859673,0.99444580078125,-0.065185546875,-0.05426025390625,0.0614013671875,28,33,2108,-3,-2,1,-790,1149,-5965,-220,294,-6114,0.09991279989480972,-0.13631029427051544,0.9854992628097534,-0.11611493676900864,0.10009124130010605,-0.1374439150094986
3869695,0.99444580078125,-0.0653076171875,-0.05438232421875,0.06158447265625,30,34,2109,-3,-2,1,-790,1152,-5964,-219,296,-6113,0.10011667758226395,-0.1365879774093628,0.9854925870895386,-0.11644625663757324,0.10029096901416779,-0.13772130012512207
3879699,0.99444580078125,-0.0654296875,-0.05450439453125,0.061767578125,30,34,2110,-3,-2,1,-791,1155,-5963,-219,297,-6113,0.10032046586275101,-0.1368657648563385,0.9854859113693237,-0.1167774647474289,0.10049057006835938,-0.1379987746477127
3889721,0.994384765625,-0.0655517578125,-0.0545654296875,0.0618896484375,28,32,2111,-3,-2,1,-794,1155,-5961,-221,295,-6111,0.10040411353111267,-0.13712140917778015,0.9853569865226746,-0.11701618134975433,0.10058309137821198,-0.13827112317085266
3899938,0.994384765625,-0.065673828125,-0.0546875,0.06207275390625,27,33,2110,-3,-2,1,-797,1158,-5961,-223,296,-6112,0.1006077229976654,-0.1373993158340454,0.9853503108024597,-0.11734724789857864,0.10078248381614685,-0.13854873180389404
3909937,0.99432373046875,-0.06585693359375,-0.0548095703125,0.062255859375,27,31,2111,-3,-2,1,-798,1159,-5959,-223,295,-6111,0.10079695284366608,-0.13779065012931824,0.9852142930030823,-0.11769070476293564,0.10097888112068176,-0.138957217335701
3919919,0.99432373046875,-0.06597900390625,-0.05487060546875,0.06243896484375,27,33,2112,-3,-2,1,-799,1163,-5958,-224,297,-6111,0.10087896883487701,-0.13806110620498657,0.9852142930030823,-0.1180296316742897,0.10105670243501663,-0.13922645151615143
3929911,0.99432373046875,-0.06610107421875,-0.05499267578125,0.0626220703125,27,32,2115,-3,-2,1,-801,1165,-5955,-225,298,-6109,0.10108227282762527,-0.13833923637866974,0.9852076172828674,-0.11836039274930954,0.10125574469566345,-0.13950423896312714
3939891,0.9942626953125,-0.06622314453125,-0.0550537109375,0.062744140625,27,33,2113,-3,-2,1,-801,1168,-5956,-225,299,-6110,0.10116547346115112,-0.13859499990940094,0.9850786924362183,-0.1185990497469902,0.10134783387184143,-0.13977688550949097
3949879,0.9942626953125,-0.06634521484375,-0.05517578125,0.06292724609375,29,34,2112,-3,-2,1,-801,1171,-5957,-224,300,-6111,0.10136859863996506,-0.13887326419353485,0.9850720763206482,-0.11892969161272049,0.10154666006565094,-0.14005479216575623
3959865,0.99420166015625,-0.06646728515625,-0.0552978515625,0.0631103515625,30,34,2111,-3,-2,1,-802,1173,-5957,-224,300,-6111,0.10156488418579102,-0.13914349675178528,0.9849441051483154,-0.1192815825343132,0.10175096988677979,-0.14034174382686615
3969861,0.99420166015625,-0.06658935546875,-0.055419921875,0.06329345703125,30,33,2110,-3,-2,1,-803,1175,-5958,-224,301,-6113,0.10176781564950943,-0.13942193984985352,0.9849374890327454,-0.11961202323436737,0.10194957256317139,-0.14061984419822693
3979861,0.99420166015625,-0.0667724609375,-0.05548095703125,0.0634765625,27,32,2111,-3,-2,1,-807,1177,-5957,-227,300,-6113,0.10184154659509659,-0.13981406390666962,0.9849295020103455,-0.11994179338216782,0.10201811790466309,-0.14101125299930573
3989864,0.994140625,-0.06689453125,-0.05560302734375,0.0635986328125,27,33,2109,-3,-2,1,-808,1180,-5958,-227,301,-6115,0.10204565525054932,-0.14007769525051117,0.9847937822341919,-0.12017221003770828,0.10223109275102615,-0.14129284024238586
3999452,0.994140625,-0.0670166015625,-0.05572509765625,0.06378173828125,28,31,2111,-3,-2,1,-809,1180,-5956,-227,299,-6113,0.10224829614162445,-0.14035633206367493,0.9847872257232666,-0.12050238251686096,0.1024293377995491,-0.1415710747241974
4009462,0.99407958984375,-0.067138671875,-0.0557861328125,0.06396484375,29,32,2113,-3,-2,1,-809,1183,-5953,-227,301,-6110,0.10232268273830414,-0.14061906933784485,0.9846660494804382,-0.12086230516433716,0.10251180827617645,-0.14184977114200592
4019491,0.99407958984375,-0.0672607421875,-0.055908203125,0.06414794921875,29,32,2111,-3,-2,1,-810,1186,-5955,-227,302,-6113,0.10252512991428375,-0.14089785516262054,0.9846594929695129,-0.1211923137307167,0.1027098298072815,-0.14212816953659058
4029511,0.9940185546875,-0.0673828125,-0.05596923828125,0.06427001953125,29,31,2110,-3,-2,1,-811,1187,-5955,-227,301,-6113,0.10260753333568573,-0.14115381240844727,0.984530508518219,-0.12143087387084961,0.10280117392539978,-0.14240127801895142
4039533,0.9940185546875,-0.0675048828125,-0.05609130859375,0.064453125,28,34,2111,-3,-2,1,-814,1192,-5954,-230,304,-6114,0.10280980169773102,-0.1414327323436737,0.9845239520072937,-0.12176074832677841,0.1029989942908287,-0.14267981052398682
4049745,0.9940185546875,-0.067626953125,-0.05621337890625,0.06463623046875,26,32,2111,-3,-2,1,-817,1192,-5954,-231,302,-6114,0.10301198065280914,-0.1417117416858673,0.9845173954963684,-0.12209048867225647,0.10319668799638748,-0.142958402633667
4059741,0.99395751953125,-0.0677490234375,-0.0562744140625,0.0648193359375,29,31,2114,-3,-2,1,-815,1194,-5950,-229,303,-6110,0.10308586061000824,-0.14197464287281036,0.9843963980674744,-0.1224503368139267,0.10327865183353424,-0.14323736727237701
4069732,0.99395751953125,-0.06787109375,-0.056396484375,0.06500244140625,28,32,2115,-3,-2,1,-818,1197,-5949,-231,304,-6110,0.10328784584999084,-0.1422537863254547,0.9843898415565491,-0.12277991324663162,0.1034761294722557,-0.14351607859134674
4079728,0.993896484375,-0.0679931640625,-0.0565185546875,0.065185546875,29,31,2113,-3,-2,1,-818,1198,-5950,-230,304,-6111,0.10348284244537354,-0.14252471923828125,0.9842619895935059,-0.12313146889209747,0.10367916524410248,-0.14380410313606262
4089723,0.993896484375,-0.068115234375,-0.05657958984375,0.0653076171875,30,31,2113,-3,-2,1,-818,1200,-5950,-230,304,-6112,0.10357162356376648,-0.14278914034366608,0.9842543601989746,-0.12334788590669632,0.10376434028148651,-0.14406831562519073
4099724,0.993896484375,-0.0682373046875,-0.05670166015625,0.06549072265625,30,30,2111,-3,-2,1,-820,1202,-5951,-230,304,-6114,0.1037733405828476,-0.14306849241256714,0.9842478632926941,-0.12367720901966095,0.10396147519350052,-0.14434722065925598
4109717,0.99383544921875,-0.068359375,-0.0567626953125,0.065673828125,29,28,2110,-3,-2,1,-821,1202,-5951,-231,302,-6114,0.1038467139005661,-0.1433315873146057,0.9841269850730896,-0.12403698265552521,0.10404293984174728,-0.14462649822235107
4119295,0.99383544921875,-0.0684814453125,-0.056884765625,0.0657958984375,29,29,2109,-3,-2,1,-823,1205,-5952,-232,303,-6116,0.10405659675598145,-0.14360414445400238,0.9841124415397644,-0.12424485385417938,0.10424911230802536,-0.14489980041980743
4129313,0.9937744140625,-0.068603515625,-0.0570068359375,0.06597900390625,29,30,2107,-3,-2,1,-825,1208,-5953,-232,304,-6117,0.10425108671188354,-0.1438753455877304,0.9839845895767212,-0.1245962381362915,0.10445164889097214,-0.14518822729587555
4139342,0.9937744140625,-0.0687255859375,-0.05706787109375,0.066162109375,28,31,2110,-3,-2,1,-826,1211,-5950,-234,305,-6115,0.1043311208486557,-0.14414691925048828,0.9839850664138794,-0.1249336451292038,0.10452710092067719,-0.14545835554599762
4149376,0.99371337890625,-0.06884765625,-0.05718994140625,0.06634521484375,31,31,2112,-3,-2,1,-825,1214,-5947,-232,307,-6112,0.10452539473772049,-0.14441823959350586,0.983857274055481,-0.12528498470783234,0.10472942888736725,-0.14574694633483887
4159400,0.99371337890625,-0.0689697265625,-0.05731201171875,0.0665283203125,33,33,2111,-3,-2,1,-824,1218,-5948,-230,310,-6114,0.10472654551267624,-0.14469802379608154,0.9838507771492004,-0.12561382353305817,0.10492591559886932,-0.14602626860141754
4169617,0.99371337890625,-0.069091796875,-0.05743408203125,0.06671142578125,33,32,2110,-3,-2,1,-826,1219,-5949,-231,309,-6116,0.10492760688066483,-0.1449778974056244,0.9838443398475647,-0.12594252824783325,0.10512226819992065,-0.1463056355714798
4179608,0.99365234375,-0.0692138671875,-0.0574951171875,0.06683349609375,32,32,2109,-3,-2,1,-828,1221,-5949,-232,309,-6116,0.10500870645046234,-0.14523424208164215,0.9837154746055603,-0.12618093192577362,0.10521237552165985,-0.1465795934200287
4189604,0.99365234375,-0.0693359375,-0.0576171875,0.0670166015625,31,33,2112,-3,-2,1,-830,1225,-5946,-234,311,-6114,0.1052095890045166,-0.14551424980163574,0.9837089776992798,-0.12650948762893677,0.10540853440761566,-0.1468590945005417
4199603,0.99359130859375,-0.0694580078125,-0.05767822265625,0.06719970703125,31,32,2112,-3,-2,1,-831,1226,-5945,-234,310,-6113,0.10528204590082169,-0.14577767252922058,0.9835883378982544,-0.12686917185783386,0.1054890900850296,-0.14713892340660095
4209181,0.99359130859375,-0.069580078125,-0.05780029296875,0.06732177734375,30,33,2113,-3,-2,1,-834,1229,-5944,-236,311,-6113,0.10549122840166092,-0.14605075120925903,0.9835736155509949,-0.12707629799842834,0.10569443553686142,-0.1474127620458603
4219203,0.99359130859375,-0.0697021484375,-0.05792236328125,0.0675048828125,30,34,2112,-3,-2,1,-835,1232,-5945,-236,313,-6115,0.10569184273481369,-0.14633098244667053,0.9835671782493591,-0.1274046152830124,0.10589026659727097,-0.1476924568414688
4229228,0.9935302734375,-0.06982421875,-0.0579833984375,0.06768798828125,30,33,2112,-3,-2,1,-836,1233,-5944,-237,312,-6114,0.1057640016078949,-0.14659450948238373,0.9834465980529785,-0.12776421010494232,0.10597052425146103,-0.1479724496603012
4239243,0.9935302734375,-0.06988525390625,-0.05810546875,0.06787109375,30,31,2112,-3,-2,1,-838,1233,-5944,-238,311,-6115,0.10597270727157593,-0.14675359427928925,0.9834486842155457,-0.1281016319990158,0.10617536306381226,-0.1481303870677948
4249268,0.99346923828125,-0.07000732421875,-0.05816650390625,0.06805419921875,30,31,2113,-3,-2,1,-838,1235,-5942,-238,311,-6113,0.10604467988014221,-0.1470172107219696,0.9833281636238098,-0.12846119701862335,0.106255441904068,-0.14841051399707794
4259488,0.99346923828125,-0.07012939453125,-0.05828857421875,0.06817626953125,29,29,2112,-3,-2,1,-841,1235,-5943,-239,309,-6115,0.1062534898519516,-0.14729058742523193,0.9833134412765503,-0.128667950630188,0.106460340321064,-0.14868462085723877
4269476,0.99346923828125,-0.07025146484375,-0.058349609375,0.068359375,31,31,2113,-3,-2,1,-840,1239,-5942,-238,312,-6115,0.10633239150047302,-0.14756283164024353,0.9833142161369324,-0.12900443375110626,0.1065344288945198,-0.14895528554916382
4279472,0.993408203125,-0.07037353515625,-0.0584716796875,0.06854248046875,33,33,2110,-3,-2,1,-839,1244,-5944,-236,315,-6117,0.10652533918619156,-0.1478348821401596,0.9831866025924683,-0.12935540080070496,0.10673540830612183,-0.14924493432044983
4289463,0.993408203125,-0.07049560546875,-0.05859375,0.0687255859375,34,32,2110,-3,-2,1,-840,1245,-5944,-236,314,-6118,0.10672532021999359,-0.1481156051158905,0.9831801652908325,-0.12968310713768005,0.10693048685789108,-0.14952509105205536
4299461,0.99334716796875,-0.07061767578125,-0.05865478515625,0.06890869140625,33,31,2110,-3,-2,1,-841,1246,-5943,-237,313,-6117,0.10679678618907928,-0.148379385471344,0.9830597639083862,-0.1300426423549652,0.10701005905866623,-0.14980550110340118
4309461,0.99334716796875,-0.07073974609375,-0.05877685546875,0.069091796875,30,31,2110,-3,-2,1,-846,1248,-5943,-240,313,-6118,0.1069965735077858,-0.14866024255752563,0.98305344581604,-0.13037019968032837,0.10720489174127579,-0.15008576214313507
4319045,0.9932861328125,-0.07086181640625,-0.058837890625,0.0692138671875,30,31,2111,-3,-2,1,-847,1250,-5941,-241,313,-6116,0.1070764809846878,-0.14891691505908966,0.9829245805740356,-0.130608469247818,0.10729387402534485,-0.15036043524742126
4329073,0.9932861328125,-0.07098388671875,-0.0589599609375,0.06939697265625,30,33,2110,-3,-2,1,-848,1255,-5942,-241,316,-6118,0.10727608948945999,-0.14919790625572205,0.9829182624816895,-0.13093586266040802,0.10748849809169769,-0.1506408303976059
4339091,0.9932861328125,-0.071044921875,-0.05902099609375,0.069580078125,30,33,2111,-3,-2,1,-849,1256,-5941,-242,316,-6118,0.10736285150051117,-0.14934924244880676,0.9829278588294983,-0.13128133118152618,0.1075713112950325,-0.15078988671302795
4349118,0.99322509765625,-0.0711669921875,-0.05914306640625,0.06976318359375,29,31,2113,-3,-2,1,-852,1256,-5938,-244,315,-6115,0.1075550839304924,-0.14962169528007507,0.9828003644943237,-0.13163210451602936,0.10777158290147781,-0.15108010172843933
4359345,0.99322509765625,-0.0712890625,-0.0592041015625,0.0699462890625,29,31,2113,-3,-2,1,-852,1258,-5938,-244,315,-6116,0.10763318836688995,-0.14989438652992249,0.9828013181686401,-0.1319679319858551,0.10784471780061722,-0.15135112404823303
4369345,0.9931640625,-0.0714111328125,-0.059326171875,0.07012939453125,31,32,2113,-3,-2,1,-852,1262,-5937,-243,317,-6115,0.10782520473003387,-0.15016695857048035,0.9826738834381104,-0.13231869041919708,0.10804477334022522,-0.15164150297641754
4379342,0.9931640625,-0.071533203125,-0.05938720703125,0.07025146484375,31,32,2113,-3,-2,1,-853,1264,-5937,-244,318,-6116,0.1079118549823761,-0.1504324972629547,0.9826662540435791,-0.13253319263458252,0.1081274002790451,-0.15190671384334564
4389344,0.99310302734375,-0.0716552734375,-0.05950927734375,0.0704345703125,31,30,2114,-3,-2,1,-854,1264,-5934,-244,316,-6113,0.1081036701798439,-0.15070515871047974,0.9825388193130493,-0.13288387656211853,0.10832724720239639,-0.15219725668430328
4399344,0.99310302734375,-0.07177734375,-0.05963134765625,0.07061767578125,30,29,2116,-3,-2,1,-857,1265,-5932,-246,316,-6112,0.10830264538526535,-0.15098664164543152,0.9825326204299927,-0.1332107037305832,0.10852111130952835,-0.15247808396816254
4408930,0.99310302734375,-0.0718994140625,-0.0596923828125,0.07073974609375,29,31,2115,-3,-2,1,-858,1270,-5933,-247,319,-6114,0.10838907957077026,-0.15125229954719543,0.9825250506401062,-0.13342499732971191,0.10860347747802734,-0.1527433842420578
4418956,0.9930419921875,-0.072021484375,-0.059814453125,0.0709228515625,27,31,2115,-3,-2,1,-862,1272,-5932,-250,318,-6113,0.1085805892944336,-0.15152513980865479,0.9823975563049316,-0.13377556204795837,0.10880303382873535,-0.15303419530391693
4428975,0.9930419921875,-0.07208251953125,-0.05987548828125,0.07110595703125,28,31,2112,-3,-2,1,-862,1273,-5935,-249,318,-6117,0.10866675525903702,-0.1516769528388977,0.9824074506759644,-0.13412056863307953,0.10888510942459106,-0.15318360924720764
4438998,0.99298095703125,-0.07220458984375,-0.05999755859375,0.0712890625,28,32,2111,-3,-2,1,-863,1276,-5935,-249,319,-6117,0.10885807126760483,-0.1519499123096466,0.9822801351547241,-0.1344711184501648,0.10908445715904236,-0.15347453951835632
4449007,0.99298095703125,-0.07232666015625,-0.06005859375,0.0714111328125,27,31,2110,-3,-2,1,-865,1277,-5936,-250,318,-6119,0.10894422233104706,-0.15221568942070007,0.9822725653648376,-0.1346851885318756,0.10916648805141449,-0.15373994410037994
4459225,0.992919921875,-0.07244873046875,-0.0601806640625,0.07159423828125,28,31,2109,-3,-2,1,-866,1280,-5936,-250,319,-6119,0.10913533717393875,-0.15248875319957733,0.9821451902389526,-0.1350356638431549,0.10936564207077026,-0.15403106808662415
4469213,0.992919921875,-0.07257080078125,-0.06024169921875,0.07177734375,27,32,2112,-3,-2,1,-867,1283,-5933,-251,321,-6117,0.1092124879360199,-0.15276196599006653,0.9821463227272034,-0.13537074625492096,0.10943762958049774,-0.15430252254009247
4479213,0.992919921875,-0.0726318359375,-0.06036376953125,0.07196044921875,28,31,2113,-3,-2,1,-868,1283,-5932,-251,320,-6117,0.10941953957080841,-0.15292280912399292,0.9821491241455078,-0.13570669293403625,0.1096404418349266,-0.15446197986602783
4489213,0.99285888671875,-0.07275390625,-0.0604248046875,0.0721435546875,28,32,2113,-3,-2,1,-868,1286,-5931,-251,321,-6116,0.10948915779590607,-0.15318724513053894,0.9820291996002197,-0.13606594502925873,0.10971816629171371,-0.15474344789981842
4499213,0.99285888671875,-0.0728759765625,-0.060546875,0.072265625,29,31,2114,-3,-2,1,-869,1288,-5930,-251,322,-6116,0.1096961498260498,-0.15346203744411469,0.9820142984390259,-0.13627082109451294,0.10992088913917542,-0.1550189107656479
4508800,0.9927978515625,-0.072998046875,-0.06060791015625,0.07244873046875,30,31,2115,-3,-2,1,-869,1290,-5928,-251,322,-6114,0.10976557433605194,-0.15372654795646667,0.9818943738937378,-0.13663005828857422,0.10999841243028641,-0.15530049800872803
4518825,0.9927978515625,-0.07305908203125,-0.06072998046875,0.0726318359375,29,32,2113,-3,-2,1,-871,1292,-5930,-252,323,-6117,0.10997235774993896,-0.15388765931129456,0.9818971157073975,-0.13696573674678802,0.1102009266614914,-0.15546022355556488
4528842,0.9927978515625,-0.07318115234375,-0.060791015625,0.07281494140625,29,32,2116,-3,-2,1,-872,1294,-5927,-253,323,-6115,0.11004901677370071,-0.15416117012500763,0.9818985462188721,-0.13730041682720184,0.11027230322360992,-0.15573185682296753
4538867,0.99273681640625,-0.07330322265625,-0.0609130859375,0.07293701171875,30,31,2116,-3,-2,1,-873,1296,-5926,-253,324,-6114,0.11024829000234604,-0.15442724525928497,0.9817624688148499,-0.13752958178520203,0.11048062145709991,-0.15601758658885956
4548893,0.99273681640625,-0.07342529296875,-0.06097412109375,0.0731201171875,29,32,2114,-3,-2,1,-874,1299,-5928,-253,325,-6117,0.11032477766275406,-0.1547008603811264,0.9817637801170349,-0.13786406815052032,0.11055181175470352,-0.15628932416439056
4559097,0.99267578125,-0.07354736328125,-0.06109619140625,0.07330322265625,28,31,2114,-3,-2,1,-877,1300,-5927,-255,323,-6116,0.11051490157842636,-0.15497446060180664,0.9816365838050842,-0.13821430504322052,0.11074994504451752,-0.15658120810985565
4569092,0.99267578125,-0.07366943359375,-0.0611572265625,0.073486328125,28,30,2113,-3,-2,1,-877,1301,-5928,-255,323,-6118,0.11059120297431946,-0.15524816513061523,0.9816380739212036,-0.13854868710041046,0.11082089692354202,-0.15685302019119263
4579084,0.99261474609375,-0.07373046875,-0.061279296875,0.07366943359375,29,31,2112,-3,-2,1,-878,1304,-5928,-255,325,-6118,0.11079010367393494,-0.15540072321891785,0.981519877910614,-0.13890881836414337,0.11102887988090515,-0.15702323615550995
4589083,0.99261474609375,-0.0738525390625,-0.06134033203125,0.07379150390625,29,30,2111,-3,-2,1,-879,1305,-5929,-255,324,-6119,0.11087525635957718,-0.1556670367717743,0.9815123677253723,-0.13912200927734375,0.11110971868038177,-0.15728908777236938
4599080,0.9925537109375,-0.073974609375,-0.06146240234375,0.073974609375,28,29,2112,-3,-2,1,-881,1306,-5927,-256,323,-6118,0.11106498539447784,-0.15594086050987244,0.9813852310180664,-0.1394721269607544,0.11130745708942413,-0.15758129954338074
4608670,0.9925537109375,-0.0740966796875,-0.0615234375,0.07415771484375,28,30,2114,-3,-2,1,-882,1309,-5925,-257,324,-6117,0.11114095151424408,-0.15621474385261536,0.9813867807388306,-0.13980627059936523,0.111378014087677,-0.15785324573516846
4618696,0.9925537109375,-0.07415771484375,-0.06158447265625,0.0743408203125,29,31,2114,-3,-2,1,-882,1311,-5925,-257,325,-6117,0.1112259030342102,-0.15636751055717468,0.9813973903656006,-0.14015035331249237,0.11145859956741333,-0.15800336003303528
4628702,0.99249267578125,-0.07427978515625,-0.06170654296875,0.074462890625,30,32,2113,-3,-2,1,-882,1315,-5925,-256,328,-6118,0.11142440885305405,-0.15663397312164307,0.9812612533569336,-0.14037932455539703,0.11166618019342422,-0.15828974545001984
4638722,0.99249267578125,-0.07440185546875,-0.061767578125,0.07464599609375,32,30,2112,-3,-2,1,-881,1315,-5926,-254,326,-6119,0.11150013655424118,-0.15690800547599792,0.9812628626823425,-0.14071324467658997,0.11173643916845322,-0.1585618108510971
4648740,0.992431640625,-0.07452392578125,-0.0618896484375,0.0748291015625,29,30,2113,-3,-2,1,-885,1317,-5924,-257,326,-6118,0.11168937385082245,-0.15718209743499756,0.9811357855796814,-0.14106324315071106,0.11193368583917618,-0.1588543802499771
4658764,0.992431640625,-0.0745849609375,-0.06195068359375,0.07501220703125,29,32,2111,-3,-2,1,-886,1320,-5926,-258,328,-6120,0.11177407205104828,-0.1573350727558136,0.9811466336250305,-0.14140716195106506,0.11201395839452744,-0.15900467336177826
4668980,0.99237060546875,-0.07476806640625,-0.06201171875,0.0751953125,28,32,2108,-3,-2,1,-888,1324,-5928,-260,328,-6123,0.11183279752731323,-0.15772125124931335,0.98101806640625,-0.1417560577392578,0.11207965761423111,-0.15940891206264496
4678979,0.99237060546875,-0.0748291015625,-0.0621337890625,0.0753173828125,29,32,2110,-3,-2,1,-888,1325,-5926,-259,329,-6122,0.11204762756824493,-0.1578759104013443,0.9810121655464172,-0.1419697254896164,0.11229106038808823,-0.15956352651119232
4688978,0.99237060546875,-0.074951171875,-0.06219482421875,0.07550048828125,30,33,2108,-3,-2,1,-888,1328,-5928,-258,330,-6125,0.11212293058633804,-0.15815016627311707,0.9810138940811157,-0.14230330288410187,0.11236082017421722,-0.15983575582504272
4698567,0.9923095703125,-0.0750732421875,-0.06231689453125,0.07568359375,31,32,2108,-3,-2,1,-889,1329,-5927,-258,329,-6124,0.11231167614459991,-0.1584245264530182,0.9808868765830994,-0.14265313744544983,0.1125575453042984,-0.16012869775295258
4708597,0.9923095703125,-0.0751953125,-0.0623779296875,0.07586669921875,32,31,2107,-3,-2,1,-888,1331,-5928,-257,330,-6125,0.1123867928981781,-0.15869887173175812,0.9808887243270874,-0.14298656582832336,0.1126270666718483,-0.16040097177028656
4718618,0.99224853515625,-0.0753173828125,-0.0625,0.0760498046875,32,32,2109,-3,-2,1,-890,1334,-5925,-258,331,-6123,0.11257532238960266,-0.1589733511209488,0.9807617664337158,-0.14333635568618774,0.11282357573509216,-0.16069409251213074
4728637,0.99224853515625,-0.07537841796875,-0.06256103515625,0.07623291015625,31,32,2109,-3,-2,1,-891,1335,-5925,-259,331,-6123,0.11265955865383148,-0.1591266691684723,0.9807727932929993,-0.1436798870563507,0.11290328204631805,-0.16084463894367218
4738666,0.9921875,-0.07550048828125,-0.06268310546875,0.076416015625,29,31,2110,-3,-2,1,-895,1336,-5923,-262,330,-6122,0.11284789443016052,-0.15940126776695251,0.9806458950042725,-0.1440296471118927,0.1130995973944664,-0.1611379235982895
4748863,0.9921875,-0.07562255859375,-0.062744140625,0.0765380859375,27,31,2112,-3,-2,1,-898,1339,-5921,-265,331,-6121,0.11293189227581024,-0.15966814756393433,0.9806385040283203,-0.1442418098449707,0.1131790429353714,-0.16140423715114594
4758848,0.99212646484375,-0.07574462890625,-0.0628662109375,0.07672119140625,28,30,2113,-3,-2,1,-898,1340,-5919,-264,330,-6119,0.11312002688646317,-0.1599428504705429,0.9805116653442383,-0.1445915251970291,0.11337514966726303,-0.16169767081737518
4768845,0.99212646484375,-0.0758056640625,-0.06292724609375,0.076904296875,27,31,2114,-3,-2,1,-900,1342,-5918,-266,331,-6119,0.11320400983095169,-0.16009636223316193,0.980522871017456,-0.14493489265441895,0.11345455050468445,-0.16184835135936737
4778848,0.99212646484375,-0.075927734375,-0.06304931640625,0.07708740234375,29,32,2113,-3,-2,1,-899,1345,-5919,-264,333,-6121,0.11339965462684631,-0.16038045287132263,0.9805171489715576,-0.14525854587554932,0.11364438384771347,-0.16213148832321167
4788846,0.9920654296875,-0.0760498046875,-0.0631103515625,0.0772705078125,30,31,2112,-3,-2,1,-899,1347,-5919,-263,333,-6121,0.11346638202667236,-0.16064590215682983,0.9803980588912964,-0.14561744034290314,0.1137191504240036,-0.1624145209789276
4798838,0.9920654296875,-0.07611083984375,-0.063232421875,0.077392578125,28,32,2110,-3,-2,1,-903,1349,-5921,-266,333,-6124,0.11368057131767273,-0.16080130636692047,0.9803922176361084,-0.1458304077386856,0.11392977088689804,-0.1625698357820511
4808417,0.99200439453125,-0.07623291015625,-0.06329345703125,0.07757568359375,29,31,2111,-3,-2,1,-902,1350,-5919,-265,333,-6122,0.11374712735414505,-0.16106683015823364,0.9802731871604919,-0.14618925750255585,0.11400435864925385,-0.16285298764705658
4818439,0.99200439453125,-0.07635498046875,-0.06341552734375,0.0777587890625,30,31,2111,-3,-2,1,-903,1352,-5919,-265,333,-6123,0.11394242942333221,-0.16135118901729584,0.9802675247192383,-0.14651258289813995,0.11419378966093063,-0.1631363481283188
4828453,0.991943359375,-0.076416015625,-0.0634765625,0.07794189453125,30,30,2112,-3,-2,1,-904,1352,-5917,-265,332,-6121,0.11401829123497009,-0.16149568557739258,0.9801579117774963,-0.14688192307949066,0.11427881568670273,-0.16329781711101532
4838477,0.991943359375,-0.0765380859375,-0.06353759765625,0.078125,29,30,2111,-3,-2,1,-905,1355,-5918,-266,333,-6123,0.11409232020378113,-0.16177064180374146,0.9801600575447083,-0.14721445739269257,0.11434701830148697,-0.1635705530643463
4848500,0.99188232421875,-0.07666015625,-0.06365966796875,0.07830810546875,29,32,2110,-3,-2,1,-907,1359,-5918,-267,335,-6123,0.11427956819534302,-0.16204583644866943,0.9800333976745605,-0.14756393432617188,0.11454220861196518,-0.16386465728282928
4858711,0.99188232421875,-0.0767822265625,-0.063720703125,0.07843017578125,29,32,2111,-3,-2,1,-907,1361,-5917,-267,336,-6123,0.11436279118061066,-0.16231311857700348,0.9800260663032532,-0.14777538180351257,0.11462072283029556,-0.1641313135623932
4868709,0.99188232421875,-0.07684326171875,-0.0638427734375,0.07861328125,31,33,2111,-3,-2,1,-907,1364,-5917,-266,338,-6124,0.11456723511219025,-0.16247671842575073,0.980029821395874,-0.14810886979103088,0.11482035368680954,-0.16429316997528076
4878704,0.9918212890625,-0.07696533203125,-0.06390380859375,0.07879638671875,30,34,2108,-3,-2,1,-909,1367,-5919,-268,338,-6126,0.11463313549757004,-0.1627424955368042,0.9799109697341919,-0.14846764504909515,0.11489426344633102,-0.1645767092704773
4888693,0.9918212890625,-0.07708740234375,-0.06396484375,0.07891845703125,29,32,2109,-3,-2,1,-910,1367,-5918,-268,337,-6126,0.11471614986658096,-0.1630098670721054,0.9799036383628845,-0.14867889881134033,0.1149725392460823,-0.16484342515468597
4898673,0.99176025390625,-0.0771484375,-0.0640869140625,0.0791015625,31,32,2110,-3,-2,1,-910,1368,-5916,-267,337,-6124,0.11491258442401886,-0.16316425800323486,0.9797864556312561,-0.1490388661623001,0.11517804861068726,-0.16501611471176147
4908651,0.99176025390625,-0.0772705078125,-0.06414794921875,0.07928466796875,31,32,2109,-3,-2,1,-910,1370,-5917,-267,337,-6125,0.11498604714870453,-0.16343954205513,0.9797887802124023,-0.14937090873718262,0.11524557322263718,-0.16528908908367157
4918645,0.99169921875,-0.077392578125,-0.064208984375,0.0794677734375,30,33,2109,-3,-2,1,-912,1374,-5916,-269,339,-6125,0.11505156755447388,-0.16370540857315063,0.9796700477600098,-0.1497296243906021,0.11531908810138702,-0.16557279229164124
4928639,0.99169921875,-0.07745361328125,-0.0643310546875,0.07965087890625,28,32,2109,-3,-2,1,-916,1374,-5916,-272,337,-6126,0.11525561660528183,-0.16386942565441132,0.9796740412712097,-0.15006278455257416,0.1155182346701622,-0.16573500633239746
4938631,0.99169921875,-0.07757568359375,-0.06439208984375,0.07977294921875,29,30,2111,-3,-2,1,-915,1374,-5914,-270,336,-6124,0.1153382882475853,-0.16413697600364685,0.9796667695045471,-0.15027371048927307,0.11559608578681946,-0.16600187122821808
4948630,0.99163818359375,-0.07769775390625,-0.064453125,0.0799560546875,30,31,2113,-3,-2,1,-915,1377,-5911,-271,338,-6122,0.11540354788303375,-0.16440296173095703,0.9795480966567993,-0.1506323665380478,0.11566933989524841,-0.16628572344779968
4958633,0.99163818359375,-0.0777587890625,-0.0645751953125,0.08013916015625,29,31,2113,-3,-2,1,-918,1379,-5911,-273,339,-6123,0.11560741066932678,-0.16456717252731323,0.9795522093772888,-0.15096533298492432,0.11586824059486389,-0.16644808650016785
4968630,0.9915771484375,-0.077880859375,-0.06463623046875,0.080322265625,28,32,2115,-3,-2,1,-919,1382,-5908,-274,340,-6120,0.11567248404026031,-0.1648332178592682,0.9794335961341858,-0.15132398903369904,0.11594130843877792,-0.1667320281267166
4978218,0.9915771484375,-0.0780029296875,-0.06475830078125,0.0804443359375,29,32,2113,-3,-2,1,-920,1384,-5910,-274,340,-6123,0.11587591469287872,-0.1651107221841812,0.9794183969497681,-0.15152518451213837,0.11613977700471878,-0.167010098695755
4988227,0.99151611328125,-0.07806396484375,-0.0648193359375,0.08062744140625,29,32,2113,-3,-2,1,-920,1385,-5909,-273,340,-6122,0.11595063656568527,-0.16525579988956451,0.9793094992637634,-0.15189458429813385,0.11622364819049835,-0.1671723574399948
4998245,0.99151611328125,-0.07818603515625,-0.06494140625,0.080810546875,29,32,2113,-3,-2,1,-922,1388,-5909,-274,341,-6123,0.11614438891410828,-0.16554132103919983,0.9793041348457336,-0.15221649408340454,0.11641120165586472,-0.167456716299057
5008270,0.991455078125,-0.07830810546875,-0.06500244140625,0.08099365234375,29,32,2114,-3,-2,1,-922,1390,-5907,-274,342,-6121,0.11620908230543137,-0.16580751538276672,0.9791856408119202,-0.15257509052753448,0.11648387461900711,-0.16774091124534607
5018297,0.991455078125,-0.078369140625,-0.0650634765625,0.0811767578125,30,30,2112,-3,-2,1,-922,1389,-5909,-273,339,-6123,0.11629152297973633,-0.16596224904060364,0.9791978597640991,-0.15291725099086761,0.11656136065721512,-0.1678924709558487
5028508,0.99139404296875,-0.0784912109375,-0.065185546875,0.081298828125,30,31,2112,-3,-2,1,-924,1392,-5908,-274,341,-6123,0.11648663878440857,-0.1662304550409317,0.9790616631507874,-0.153145432472229,0.1167655661702156,-0.1681816577911377
5038498,0.99139404296875,-0.07861328125,-0.06524658203125,0.08148193359375,30,31,2113,-3,-2,1,-924,1395,-5907,-275,342,-6123,0.11655902862548828,-0.1665063202381134,0.9790642857551575,-0.1534765660762787,0.11683178693056107,-0.1684550642967224
5048492,0.99139404296875,-0.07867431640625,-0.06536865234375,0.0816650390625,30,31,2116,-3,-2,1,-926,1396,-5904,-276,342,-6121,0.11676229536533356,-0.16667117178440094,0.9790686368942261,-0.15380898118019104,0.11702995002269745,-0.16861797869205475
5058487,0.9913330078125,-0.07879638671875,-0.0654296875,0.08184814453125,32,31,2116,-3,-2,1,-925,1398,-5903,-275,343,-6120,0.11682654172182083,-0.16693751513957977,0.9789503216743469,-0.1541675180196762,0.11710214614868164,-0.16890236735343933
5068476,0.9913330078125,-0.078857421875,-0.06549072265625,0.08197021484375,30,32,2115,-3,-2,1,-927,1400,-5904,-276,343,-6122,0.11691831052303314,-0.16708451509475708,0.9789527058601379,-0.15438860654830933,0.11719013005495071,-0.16904787719249725
5078452,0.99127197265625,-0.0789794921875,-0.06561279296875,0.0821533203125,31,29,2114,-3,-2,1,-928,1400,-5904,-276,341,-6121,0.11710339784622192,-0.16736093163490295,0.9788264632225037,-0.15473748743534088,0.11738307774066925,-0.16934365034103394
5088437,0.99127197265625,-0.07904052734375,-0.065673828125,0.08233642578125,31,31,2115,-3,-2,1,-928,1403,-5903,-276,344,-6121,0.11718542128801346,-0.16751602292060852,0.9788389801979065,-0.15507929027080536,0.11746002733707428,-0.16949546337127686
5098433,0.9912109375,-0.07916259765625,-0.0657958984375,0.08251953125,31,30,2112,-3,-2,1,-930,1404,-5905,-276,342,-6124,0.11737030744552612,-0.16779255867004395,0.978712797164917,-0.15542815625667572,0.1176527664065361,-0.16979140043258667
5108426,0.9912109375,-0.07928466796875,-0.06585693359375,0.0826416015625,31,29,2112,-3,-2,1,-931,1405,-5905,-277,341,-6124,0.11745180189609528,-0.16806070506572723,0.9787055253982544,-0.15563800930976868,0.11772922426462173,-0.17005877196788788
5118426,0.99114990234375,-0.079345703125,-0.06597900390625,0.08282470703125,30,31,2113,-3,-2,1,-933,1409,-5903,-278,344,-6123,0.11764660477638245,-0.16821634769439697,0.9785891175270081,-0.15599790215492249,0.11793307214975357,-0.1702331155538559
5128008,0.99114990234375,-0.0794677734375,-0.0660400390625,0.0830078125,30,30,2110,-3,-2,1,-934,1410,-5906,-279,343,-6127,0.11771826446056366,-0.1684926301240921,0.978592038154602,-0.15632842481136322,0.1179983913898468,-0.1705068200826645
5138033,0.99114990234375,-0.07952880859375,-0.06610107421875,0.0831298828125,31,30,2112,-3,-2,1,-934,1411,-5904,-278,344,-6125,0.11780969798564911,-0.1686398833990097,0.9785944819450378,-0.15654918551445007,0.11808596551418304,-0.17065253853797913
5148059,0.9910888671875,-0.07965087890625,-0.066162109375,0.08331298828125,31,29,2108,-3,-2,1,-934,1412,-5907,-278,342,-6128,0.11787315458059311,-0.16890652477741241,0.9784765243530273,-0.15690761804580688,0.11815734207630157,-0.17093735933303833
